"STUDYID","DOMAIN","USUBJID","BWSEQ","BWREFID","BWTESTCD","BWTEST","BWORRES","BWORRESU","BWSTRESC","BWSTRESN","BWSTRESU","BWBLFL","VISITDY","BWDTC","BWDY"
"S-00001","BW","S-00001-151","1","1","BW","Body Weight","126.3","g","126.3","126.3","g","","-1","2018-10-08","-1"
"S-00001","BW","S-00001-151","2","2","BW","Body Weight","132.0","g","132.0","132","g","","1","2018-10-09","1"
"S-00001","BW","S-00001-151","3","3","BW","Body Weight","135.6","g","135.6","135.6","g","","2","2018-10-10","2"
"S-00001","BW","S-00001-151","4","4","BW","Body Weight","136.7","g","136.7","136.7","g","","3","2018-10-11","3"
"S-00001","BW","S-00001-151","5","5","BW","Body Weight","136.1","g","136.1","136.1","g","","4","2018-10-12","4"
"S-00001","BW","S-00001-151","6","6","BW","Body Weight","142.8","g","142.8","142.8","g","","5","2018-10-13","5"
"S-00001","BW","S-00001-151","7","7","BW","Body Weight","145.8","g","145.8","145.8","g","","6","2018-10-14","6"
"S-00001","BW","S-00001-151","8","8","BW","Body Weight","149.0","g","149.0","149","g","","7","2018-10-15","7"
"S-00001","BW","S-00001-151","9","9","BW","Body Weight","150.0","g","150.0","150","g","","8","2018-10-16","8"
"S-00001","BW","S-00001-151","10","10","BW","Body Weight","154.4","g","154.4","154.4","g","","9","2018-10-17","9"
"S-00001","BW","S-00001-151","11","11","BW","Body Weight","158.0","g","158.0","158","g","","10","2018-10-18","10"
"S-00001","BW","S-00001-151","12","12","BW","Body Weight","161.9","g","161.9","161.9","g","","11","2018-10-19","11"
"S-00001","BW","S-00001-151","13","13","BW","Body Weight","161.3","g","161.3","161.3","g","","12","2018-10-20","12"
"S-00001","BW","S-00001-151","14","14","BW","Body Weight","167.7","g","167.7","167.7","g","","13","2018-10-21","13"
"S-00001","BW","S-00001-151","15","15","BW","Body Weight","173.7","g","173.7","173.7","g","","14","2018-10-22","14"
"S-00001","BW","S-00001-151","16","16","BW","Body Weight","176.1","g","176.1","176.1","g","","15","2018-10-23","15"
"S-00001","BW","S-00001-151","17","17","BW","Body Weight","172.8","g","172.8","172.8","g","","16","2018-10-24","16"
"S-00001","BW","S-00001-151","18","18","BW","Body Weight","179.2","g","179.2","179.2","g","","17","2018-10-25","17"
"S-00001","BW","S-00001-151","19","19","BW","Body Weight","184.4","g","184.4","184.4","g","","18","2018-10-26","18"
"S-00001","BW","S-00001-151","20","20","BW","Body Weight","186.8","g","186.8","186.8","g","","19","2018-10-27","19"
"S-00001","BW","S-00001-151","21","21","BW","Body Weight","185.5","g","185.5","185.5","g","","20","2018-10-28","20"
"S-00001","BW","S-00001-151","22","22","BW","Body Weight","188.5","g","188.5","188.5","g","","21","2018-10-29","21"
"S-00001","BW","S-00001-151","23","23","BW","Body Weight","193.2","g","193.2","193.2","g","","22","2018-10-30","22"
"S-00001","BW","S-00001-151","24","24","BW","Body Weight","194.4","g","194.4","194.4","g","","23","2018-10-31","23"
"S-00001","BW","S-00001-151","25","25","BW","Body Weight","195.3","g","195.3","195.3","g","","24","2018-11-01","24"
"S-00001","BW","S-00001-151","26","26","BW","Body Weight","200.6","g","200.6","200.6","g","","25","2018-11-02","25"
"S-00001","BW","S-00001-151","27","27","BW","Body Weight","200.4","g","200.4","200.4","g","","26","2018-11-03","26"
"S-00001","BW","S-00001-151","28","28","BW","Body Weight","205.5","g","205.5","205.5","g","","27","2018-11-04","27"
"S-00001","BW","S-00001-151","29","29","BW","Body Weight","205.8","g","205.8","205.8","g","","28","2018-11-05","28"
"S-00001","BW","S-00001-151","30","30","BW","Body Weight","209.8","g","209.8","209.8","g","","29","2018-11-06","29"
"S-00001","BW","S-00001-151","31","31","BW","Body Weight","212.1","g","212.1","212.1","g","","30","2018-11-07","30"
"S-00001","BW","S-00001-151","32","32","BW","Body Weight","214.4","g","214.4","214.4","g","","31","2018-11-08","31"
"S-00001","BW","S-00001-151","33","33","BW","Body Weight","210.6","g","210.6","210.6","g","","32","2018-11-09","32"
"S-00001","BW","S-00001-151","34","34","BW","Body Weight","218.9","g","218.9","218.9","g","","33","2018-11-10","33"
"S-00001","BW","S-00001-151","35","35","BW","Body Weight","219.0","g","219.0","219","g","","34","2018-11-11","34"
"S-00001","BW","S-00001-151","36","36","BW","Body Weight","221.4","g","221.4","221.4","g","","35","2018-11-12","35"
"S-00001","BW","S-00001-151","37","37","BW","Body Weight","220.9","g","220.9","220.9","g","","36","2018-11-13","36"
"S-00001","BW","S-00001-151","38","38","BW","Body Weight","220.5","g","220.5","220.5","g","","37","2018-11-14","37"
"S-00001","BW","S-00001-151","39","39","BW","Body Weight","225.7","g","225.7","225.7","g","","38","2018-11-15","38"
"S-00001","BW","S-00001-151","40","40","BW","Body Weight","226.6","g","226.6","226.6","g","","39","2018-11-16","39"
"S-00001","BW","S-00001-151","41","41","BW","Body Weight","223.1","g","223.1","223.1","g","","40","2018-11-17","40"
"S-00001","BW","S-00001-151","42","42","BW","Body Weight","228.2","g","228.2","228.2","g","","41","2018-11-18","41"
"S-00001","BW","S-00001-151","43","43","BW","Body Weight","233.8","g","233.8","233.8","g","","42","2018-11-19","42"
"S-00001","BW","S-00001-151","44","44","BW","Body Weight","233.9","g","233.9","233.9","g","","43","2018-11-20","43"
"S-00001","BW","S-00001-151","45","45","BW","Body Weight","231.8","g","231.8","231.8","g","","44","2018-11-21","44"
"S-00001","BW","S-00001-151","46","46","BW","Body Weight","236.0","g","236.0","236","g","","45","2018-11-22","45"
"S-00001","BW","S-00001-151","47","47","TERMBW","Terminal Body Weight","238.0","g","238.0","238","g","","46","2018-11-23","46"
"S-00001","BW","S-00001-152","48","48","BW","Body Weight","113.1","g","113.1","113.1","g","","-1","2018-10-08","-1"
"S-00001","BW","S-00001-152","49","49","BW","Body Weight","116.3","g","116.3","116.3","g","","1","2018-10-09","1"
"S-00001","BW","S-00001-152","50","50","BW","Body Weight","118.2","g","118.2","118.2","g","","2","2018-10-10","2"
"S-00001","BW","S-00001-152","51","51","BW","Body Weight","117.9","g","117.9","117.9","g","","3","2018-10-11","3"
"S-00001","BW","S-00001-152","52","52","BW","Body Weight","121.2","g","121.2","121.2","g","","4","2018-10-12","4"
"S-00001","BW","S-00001-152","53","53","BW","Body Weight","124.5","g","124.5","124.5","g","","5","2018-10-13","5"
"S-00001","BW","S-00001-152","54","54","BW","Body Weight","127.8","g","127.8","127.8","g","","6","2018-10-14","6"
"S-00001","BW","S-00001-152","55","55","BW","Body Weight","129.8","g","129.8","129.8","g","","7","2018-10-15","7"
"S-00001","BW","S-00001-152","56","56","BW","Body Weight","133.5","g","133.5","133.5","g","","8","2018-10-16","8"
"S-00001","BW","S-00001-152","57","57","BW","Body Weight","136.4","g","136.4","136.4","g","","9","2018-10-17","9"
"S-00001","BW","S-00001-152","58","58","BW","Body Weight","139.1","g","139.1","139.1","g","","10","2018-10-18","10"
"S-00001","BW","S-00001-152","59","59","BW","Body Weight","138.4","g","138.4","138.4","g","","11","2018-10-19","11"
"S-00001","BW","S-00001-152","60","60","BW","Body Weight","144.0","g","144.0","144","g","","12","2018-10-20","12"
"S-00001","BW","S-00001-152","61","61","BW","Body Weight","148.6","g","148.6","148.6","g","","13","2018-10-21","13"
"S-00001","BW","S-00001-152","62","62","BW","Body Weight","151.5","g","151.5","151.5","g","","14","2018-10-22","14"
"S-00001","BW","S-00001-152","63","63","BW","Body Weight","150.1","g","150.1","150.1","g","","15","2018-10-23","15"
"S-00001","BW","S-00001-152","64","64","BW","Body Weight","153.6","g","153.6","153.6","g","","16","2018-10-24","16"
"S-00001","BW","S-00001-152","65","65","BW","Body Weight","155.5","g","155.5","155.5","g","","17","2018-10-25","17"
"S-00001","BW","S-00001-152","66","66","BW","Body Weight","160.9","g","160.9","160.9","g","","18","2018-10-26","18"
"S-00001","BW","S-00001-152","67","67","BW","Body Weight","158.7","g","158.7","158.7","g","","19","2018-10-27","19"
"S-00001","BW","S-00001-152","68","68","BW","Body Weight","164.9","g","164.9","164.9","g","","20","2018-10-28","20"
"S-00001","BW","S-00001-152","69","69","BW","Body Weight","165.6","g","165.6","165.6","g","","21","2018-10-29","21"
"S-00001","BW","S-00001-152","70","70","BW","Body Weight","169.3","g","169.3","169.3","g","","22","2018-10-30","22"
"S-00001","BW","S-00001-152","71","71","BW","Body Weight","168.8","g","168.8","168.8","g","","23","2018-10-31","23"
"S-00001","BW","S-00001-152","72","72","BW","Body Weight","173.1","g","173.1","173.1","g","","24","2018-11-01","24"
"S-00001","BW","S-00001-152","73","73","BW","Body Weight","176.5","g","176.5","176.5","g","","25","2018-11-02","25"
"S-00001","BW","S-00001-152","74","74","BW","Body Weight","174.3","g","174.3","174.3","g","","26","2018-11-03","26"
"S-00001","BW","S-00001-152","75","75","BW","Body Weight","178.5","g","178.5","178.5","g","","27","2018-11-04","27"
"S-00001","BW","S-00001-152","76","76","BW","Body Weight","180.9","g","180.9","180.9","g","","28","2018-11-05","28"
"S-00001","BW","S-00001-152","77","77","BW","Body Weight","182.5","g","182.5","182.5","g","","29","2018-11-06","29"
"S-00001","BW","S-00001-152","78","78","BW","Body Weight","184.7","g","184.7","184.7","g","","30","2018-11-07","30"
"S-00001","BW","S-00001-152","79","79","BW","Body Weight","182.1","g","182.1","182.1","g","","31","2018-11-08","31"
"S-00001","BW","S-00001-152","80","80","BW","Body Weight","186.5","g","186.5","186.5","g","","32","2018-11-09","32"
"S-00001","BW","S-00001-152","81","81","BW","Body Weight","189.6","g","189.6","189.6","g","","33","2018-11-10","33"
"S-00001","BW","S-00001-152","82","82","BW","Body Weight","191.0","g","191.0","191","g","","34","2018-11-11","34"
"S-00001","BW","S-00001-152","83","83","BW","Body Weight","188.5","g","188.5","188.5","g","","35","2018-11-12","35"
"S-00001","BW","S-00001-152","84","84","BW","Body Weight","193.7","g","193.7","193.7","g","","36","2018-11-13","36"
"S-00001","BW","S-00001-152","85","85","BW","Body Weight","195.1","g","195.1","195.1","g","","37","2018-11-14","37"
"S-00001","BW","S-00001-152","86","86","BW","Body Weight","199.3","g","199.3","199.3","g","","38","2018-11-15","38"
"S-00001","BW","S-00001-152","87","87","BW","Body Weight","195.3","g","195.3","195.3","g","","39","2018-11-16","39"
"S-00001","BW","S-00001-152","88","88","BW","Body Weight","199.7","g","199.7","199.7","g","","40","2018-11-17","40"
"S-00001","BW","S-00001-152","89","89","BW","Body Weight","201.5","g","201.5","201.5","g","","41","2018-11-18","41"
"S-00001","BW","S-00001-152","90","90","BW","Body Weight","201.8","g","201.8","201.8","g","","42","2018-11-19","42"
"S-00001","BW","S-00001-152","91","91","BW","Body Weight","195.8","g","195.8","195.8","g","","43","2018-11-20","43"
"S-00001","BW","S-00001-152","92","92","BW","Body Weight","198.4","g","198.4","198.4","g","","44","2018-11-21","44"
"S-00001","BW","S-00001-152","93","93","BW","Body Weight","203.9","g","203.9","203.9","g","","45","2018-11-22","45"
"S-00001","BW","S-00001-152","94","94","TERMBW","Terminal Body Weight","202.1","g","202.1","202.1","g","","46","2018-11-23","46"
"S-00001","BW","S-00001-153","95","95","BW","Body Weight","135.5","g","135.5","135.5","g","","-1","2018-10-08","-1"
"S-00001","BW","S-00001-153","96","96","BW","Body Weight","139.1","g","139.1","139.1","g","","1","2018-10-09","1"
"S-00001","BW","S-00001-153","97","97","BW","Body Weight","139.0","g","139.0","139","g","","2","2018-10-10","2"
"S-00001","BW","S-00001-153","98","98","BW","Body Weight","144.0","g","144.0","144","g","","3","2018-10-11","3"
"S-00001","BW","S-00001-153","99","99","BW","Body Weight","147.8","g","147.8","147.8","g","","4","2018-10-12","4"
"S-00001","BW","S-00001-153","100","100","BW","Body Weight","153.1","g","153.1","153.1","g","","5","2018-10-13","5"
"S-00001","BW","S-00001-153","101","101","BW","Body Weight","153.4","g","153.4","153.4","g","","6","2018-10-14","6"
"S-00001","BW","S-00001-153","102","102","BW","Body Weight","156.3","g","156.3","156.3","g","","7","2018-10-15","7"
"S-00001","BW","S-00001-153","103","103","BW","Body Weight","163.2","g","163.2","163.2","g","","8","2018-10-16","8"
"S-00001","BW","S-00001-153","104","104","BW","Body Weight","165.0","g","165.0","165","g","","9","2018-10-17","9"
"S-00001","BW","S-00001-153","105","105","BW","Body Weight","166.4","g","166.4","166.4","g","","10","2018-10-18","10"
"S-00001","BW","S-00001-153","106","106","BW","Body Weight","170.4","g","170.4","170.4","g","","11","2018-10-19","11"
"S-00001","BW","S-00001-153","107","107","BW","Body Weight","172.5","g","172.5","172.5","g","","12","2018-10-20","12"
"S-00001","BW","S-00001-153","108","108","BW","Body Weight","180.3","g","180.3","180.3","g","","13","2018-10-21","13"
"S-00001","BW","S-00001-153","109","109","BW","Body Weight","178.5","g","178.5","178.5","g","","14","2018-10-22","14"
"S-00001","BW","S-00001-153","110","110","BW","Body Weight","183.4","g","183.4","183.4","g","","15","2018-10-23","15"
"S-00001","BW","S-00001-153","111","111","BW","Body Weight","186.2","g","186.2","186.2","g","","16","2018-10-24","16"
"S-00001","BW","S-00001-153","112","112","BW","Body Weight","189.9","g","189.9","189.9","g","","17","2018-10-25","17"
"S-00001","BW","S-00001-153","113","113","BW","Body Weight","192.3","g","192.3","192.3","g","","18","2018-10-26","18"
"S-00001","BW","S-00001-153","114","114","BW","Body Weight","194.2","g","194.2","194.2","g","","19","2018-10-27","19"
"S-00001","BW","S-00001-153","115","115","BW","Body Weight","201.2","g","201.2","201.2","g","","20","2018-10-28","20"
"S-00001","BW","S-00001-153","116","116","BW","Body Weight","201.9","g","201.9","201.9","g","","21","2018-10-29","21"
"S-00001","BW","S-00001-153","117","117","BW","Body Weight","200.1","g","200.1","200.1","g","","22","2018-10-30","22"
"S-00001","BW","S-00001-153","118","118","BW","Body Weight","205.8","g","205.8","205.8","g","","23","2018-10-31","23"
"S-00001","BW","S-00001-153","119","119","BW","Body Weight","210.4","g","210.4","210.4","g","","24","2018-11-01","24"
"S-00001","BW","S-00001-153","120","120","BW","Body Weight","209.8","g","209.8","209.8","g","","25","2018-11-02","25"
"S-00001","BW","S-00001-153","121","121","BW","Body Weight","206.4","g","206.4","206.4","g","","26","2018-11-03","26"
"S-00001","BW","S-00001-153","122","122","BW","Body Weight","215.3","g","215.3","215.3","g","","27","2018-11-04","27"
"S-00001","BW","S-00001-153","123","123","BW","Body Weight","219.0","g","219.0","219","g","","28","2018-11-05","28"
"S-00001","BW","S-00001-153","124","124","BW","Body Weight","219.3","g","219.3","219.3","g","","29","2018-11-06","29"
"S-00001","BW","S-00001-153","125","125","BW","Body Weight","215.7","g","215.7","215.7","g","","30","2018-11-07","30"
"S-00001","BW","S-00001-153","126","126","BW","Body Weight","220.0","g","220.0","220","g","","31","2018-11-08","31"
"S-00001","BW","S-00001-153","127","127","BW","Body Weight","225.6","g","225.6","225.6","g","","32","2018-11-09","32"
"S-00001","BW","S-00001-153","128","128","BW","Body Weight","225.9","g","225.9","225.9","g","","33","2018-11-10","33"
"S-00001","BW","S-00001-153","129","129","BW","Body Weight","227.9","g","227.9","227.9","g","","34","2018-11-11","34"
"S-00001","BW","S-00001-153","130","130","BW","Body Weight","229.3","g","229.3","229.3","g","","35","2018-11-12","35"
"S-00001","BW","S-00001-153","131","131","BW","Body Weight","236.5","g","236.5","236.5","g","","36","2018-11-13","36"
"S-00001","BW","S-00001-153","132","132","BW","Body Weight","234.3","g","234.3","234.3","g","","37","2018-11-14","37"
"S-00001","BW","S-00001-153","133","133","BW","Body Weight","237.3","g","237.3","237.3","g","","38","2018-11-15","38"
"S-00001","BW","S-00001-153","134","134","BW","Body Weight","238.7","g","238.7","238.7","g","","39","2018-11-16","39"
"S-00001","BW","S-00001-153","135","135","BW","Body Weight","241.2","g","241.2","241.2","g","","40","2018-11-17","40"
"S-00001","BW","S-00001-153","136","136","BW","Body Weight","245.5","g","245.5","245.5","g","","41","2018-11-18","41"
"S-00001","BW","S-00001-153","137","137","BW","Body Weight","241.3","g","241.3","241.3","g","","42","2018-11-19","42"
"S-00001","BW","S-00001-153","138","138","BW","Body Weight","246.5","g","246.5","246.5","g","","43","2018-11-20","43"
"S-00001","BW","S-00001-153","139","139","BW","Body Weight","248.8","g","248.8","248.8","g","","44","2018-11-21","44"
"S-00001","BW","S-00001-153","140","140","BW","Body Weight","251.5","g","251.5","251.5","g","","45","2018-11-22","45"
"S-00001","BW","S-00001-153","141","141","TERMBW","Terminal Body Weight","245.5","g","245.5","245.5","g","","46","2018-11-23","46"
"S-00001","BW","S-00001-154","142","142","BW","Body Weight","122.0","g","122.0","122","g","","-1","2018-10-08","-1"
"S-00001","BW","S-00001-154","143","143","BW","Body Weight","124.4","g","124.4","124.4","g","","1","2018-10-09","1"
"S-00001","BW","S-00001-154","144","144","BW","Body Weight","123.4","g","123.4","123.4","g","","2","2018-10-10","2"
"S-00001","BW","S-00001-154","145","145","BW","Body Weight","130.3","g","130.3","130.3","g","","3","2018-10-11","3"
"S-00001","BW","S-00001-154","146","146","BW","Body Weight","133.4","g","133.4","133.4","g","","4","2018-10-12","4"
"S-00001","BW","S-00001-154","147","147","BW","Body Weight","138.4","g","138.4","138.4","g","","5","2018-10-13","5"
"S-00001","BW","S-00001-154","148","148","BW","Body Weight","133.5","g","133.5","133.5","g","","6","2018-10-14","6"
"S-00001","BW","S-00001-154","149","149","BW","Body Weight","140.4","g","140.4","140.4","g","","7","2018-10-15","7"
"S-00001","BW","S-00001-154","150","150","BW","Body Weight","145.3","g","145.3","145.3","g","","8","2018-10-16","8"
"S-00001","BW","S-00001-154","151","151","BW","Body Weight","149.8","g","149.8","149.8","g","","9","2018-10-17","9"
"S-00001","BW","S-00001-154","152","152","BW","Body Weight","145.4","g","145.4","145.4","g","","10","2018-10-18","10"
"S-00001","BW","S-00001-154","153","153","BW","Body Weight","155.5","g","155.5","155.5","g","","11","2018-10-19","11"
"S-00001","BW","S-00001-154","154","154","BW","Body Weight","156.6","g","156.6","156.6","g","","12","2018-10-20","12"
"S-00001","BW","S-00001-154","155","155","BW","Body Weight","162.5","g","162.5","162.5","g","","13","2018-10-21","13"
"S-00001","BW","S-00001-154","156","156","BW","Body Weight","157.8","g","157.8","157.8","g","","14","2018-10-22","14"
"S-00001","BW","S-00001-154","157","157","BW","Body Weight","165.2","g","165.2","165.2","g","","15","2018-10-23","15"
"S-00001","BW","S-00001-154","158","158","BW","Body Weight","166.2","g","166.2","166.2","g","","16","2018-10-24","16"
"S-00001","BW","S-00001-154","159","159","BW","Body Weight","168.2","g","168.2","168.2","g","","17","2018-10-25","17"
"S-00001","BW","S-00001-154","160","160","BW","Body Weight","165.6","g","165.6","165.6","g","","18","2018-10-26","18"
"S-00001","BW","S-00001-154","161","161","BW","Body Weight","172.4","g","172.4","172.4","g","","19","2018-10-27","19"
"S-00001","BW","S-00001-154","162","162","BW","Body Weight","177.8","g","177.8","177.8","g","","20","2018-10-28","20"
"S-00001","BW","S-00001-154","163","163","BW","Body Weight","177.4","g","177.4","177.4","g","","21","2018-10-29","21"
"S-00001","BW","S-00001-154","164","164","BW","Body Weight","174.2","g","174.2","174.2","g","","22","2018-10-30","22"
"S-00001","BW","S-00001-154","165","165","BW","Body Weight","183.4","g","183.4","183.4","g","","23","2018-10-31","23"
"S-00001","BW","S-00001-154","166","166","BW","Body Weight","184.8","g","184.8","184.8","g","","24","2018-11-01","24"
"S-00001","BW","S-00001-154","167","167","BW","Body Weight","185.9","g","185.9","185.9","g","","25","2018-11-02","25"
"S-00001","BW","S-00001-154","168","168","BW","Body Weight","182.9","g","182.9","182.9","g","","26","2018-11-03","26"
"S-00001","BW","S-00001-154","169","169","BW","Body Weight","190.8","g","190.8","190.8","g","","27","2018-11-04","27"
"S-00001","BW","S-00001-154","170","170","BW","Body Weight","193.9","g","193.9","193.9","g","","28","2018-11-05","28"
"S-00001","BW","S-00001-154","171","171","BW","Body Weight","193.8","g","193.8","193.8","g","","29","2018-11-06","29"
"S-00001","BW","S-00001-154","172","172","BW","Body Weight","188.3","g","188.3","188.3","g","","30","2018-11-07","30"
"S-00001","BW","S-00001-154","173","173","BW","Body Weight","195.3","g","195.3","195.3","g","","31","2018-11-08","31"
"S-00001","BW","S-00001-154","174","174","BW","Body Weight","197.4","g","197.4","197.4","g","","32","2018-11-09","32"
"S-00001","BW","S-00001-154","175","175","BW","Body Weight","196.4","g","196.4","196.4","g","","33","2018-11-10","33"
"S-00001","BW","S-00001-154","176","176","BW","Body Weight","193.9","g","193.9","193.9","g","","34","2018-11-11","34"
"S-00001","BW","S-00001-154","177","177","BW","Body Weight","201.8","g","201.8","201.8","g","","35","2018-11-12","35"
"S-00001","BW","S-00001-154","178","178","BW","Body Weight","205.2","g","205.2","205.2","g","","36","2018-11-13","36"
"S-00001","BW","S-00001-154","179","179","BW","Body Weight","203.9","g","203.9","203.9","g","","37","2018-11-14","37"
"S-00001","BW","S-00001-154","180","180","BW","Body Weight","199.7","g","199.7","199.7","g","","38","2018-11-15","38"
"S-00001","BW","S-00001-154","181","181","BW","Body Weight","206.2","g","206.2","206.2","g","","39","2018-11-16","39"
"S-00001","BW","S-00001-154","182","182","BW","Body Weight","207.1","g","207.1","207.1","g","","40","2018-11-17","40"
"S-00001","BW","S-00001-154","183","183","BW","Body Weight","208.2","g","208.2","208.2","g","","41","2018-11-18","41"
"S-00001","BW","S-00001-154","184","184","BW","Body Weight","202.2","g","202.2","202.2","g","","42","2018-11-19","42"
"S-00001","BW","S-00001-154","185","185","BW","Body Weight","210.2","g","210.2","210.2","g","","43","2018-11-20","43"
"S-00001","BW","S-00001-154","186","186","BW","Body Weight","212.1","g","212.1","212.1","g","","44","2018-11-21","44"
"S-00001","BW","S-00001-154","187","187","BW","Body Weight","210.4","g","210.4","210.4","g","","45","2018-11-22","45"
"S-00001","BW","S-00001-154","188","188","TERMBW","Terminal Body Weight","208.6","g","208.6","208.6","g","","46","2018-11-23","46"
"S-00001","BW","S-00001-155","189","189","BW","Body Weight","137.0","g","137.0","137","g","","-1","2018-10-08","-1"
"S-00001","BW","S-00001-155","190","190","BW","Body Weight","136.4","g","136.4","136.4","g","","1","2018-10-09","1"
"S-00001","BW","S-00001-155","191","191","BW","Body Weight","143.5","g","143.5","143.5","g","","2","2018-10-10","2"
"S-00001","BW","S-00001-155","192","192","BW","Body Weight","149.1","g","149.1","149.1","g","","3","2018-10-11","3"
"S-00001","BW","S-00001-155","193","193","BW","Body Weight","153.1","g","153.1","153.1","g","","4","2018-10-12","4"
"S-00001","BW","S-00001-155","194","194","BW","Body Weight","152.0","g","152.0","152","g","","5","2018-10-13","5"
"S-00001","BW","S-00001-155","195","195","BW","Body Weight","157.7","g","157.7","157.7","g","","6","2018-10-14","6"
"S-00001","BW","S-00001-155","196","196","BW","Body Weight","161.7","g","161.7","161.7","g","","7","2018-10-15","7"
"S-00001","BW","S-00001-155","197","197","BW","Body Weight","165.2","g","165.2","165.2","g","","8","2018-10-16","8"
"S-00001","BW","S-00001-155","198","198","BW","Body Weight","163.1","g","163.1","163.1","g","","9","2018-10-17","9"
"S-00001","BW","S-00001-155","199","199","BW","Body Weight","170.3","g","170.3","170.3","g","","10","2018-10-18","10"
"S-00001","BW","S-00001-155","200","200","BW","Body Weight","175.0","g","175.0","175","g","","11","2018-10-19","11"
"S-00001","BW","S-00001-155","201","201","BW","Body Weight","178.8","g","178.8","178.8","g","","12","2018-10-20","12"
"S-00001","BW","S-00001-155","202","202","BW","Body Weight","184.2","g","184.2","184.2","g","","13","2018-10-21","13"
"S-00001","BW","S-00001-155","203","203","BW","Body Weight","185.4","g","185.4","185.4","g","","14","2018-10-22","14"
"S-00001","BW","S-00001-155","204","204","BW","Body Weight","191.4","g","191.4","191.4","g","","15","2018-10-23","15"
"S-00001","BW","S-00001-155","205","205","BW","Body Weight","192.5","g","192.5","192.5","g","","16","2018-10-24","16"
"S-00001","BW","S-00001-155","206","206","BW","Body Weight","191.6","g","191.6","191.6","g","","17","2018-10-25","17"
"S-00001","BW","S-00001-155","207","207","BW","Body Weight","196.7","g","196.7","196.7","g","","18","2018-10-26","18"
"S-00001","BW","S-00001-155","208","208","BW","Body Weight","200.5","g","200.5","200.5","g","","19","2018-10-27","19"
"S-00001","BW","S-00001-155","209","209","BW","Body Weight","205.4","g","205.4","205.4","g","","20","2018-10-28","20"
"S-00001","BW","S-00001-155","210","210","BW","Body Weight","203.1","g","203.1","203.1","g","","21","2018-10-29","21"
"S-00001","BW","S-00001-155","211","211","BW","Body Weight","204.7","g","204.7","204.7","g","","22","2018-10-30","22"
"S-00001","BW","S-00001-155","212","212","BW","Body Weight","208.2","g","208.2","208.2","g","","23","2018-10-31","23"
"S-00001","BW","S-00001-155","213","213","BW","Body Weight","212.8","g","212.8","212.8","g","","24","2018-11-01","24"
"S-00001","BW","S-00001-155","214","214","BW","Body Weight","210.1","g","210.1","210.1","g","","25","2018-11-02","25"
"S-00001","BW","S-00001-155","215","215","BW","Body Weight","216.4","g","216.4","216.4","g","","26","2018-11-03","26"
"S-00001","BW","S-00001-155","216","216","BW","Body Weight","222.1","g","222.1","222.1","g","","27","2018-11-04","27"
"S-00001","BW","S-00001-155","217","217","BW","Body Weight","216.7","g","216.7","216.7","g","","28","2018-11-05","28"
"S-00001","BW","S-00001-155","218","218","BW","Body Weight","217.6","g","217.6","217.6","g","","29","2018-11-06","29"
"S-00001","BW","S-00001-155","219","219","BW","Body Weight","221.3","g","221.3","221.3","g","","30","2018-11-07","30"
"S-00001","BW","S-00001-155","220","220","BW","Body Weight","225.6","g","225.6","225.6","g","","31","2018-11-08","31"
"S-00001","BW","S-00001-155","221","221","BW","Body Weight","226.7","g","226.7","226.7","g","","32","2018-11-09","32"
"S-00001","BW","S-00001-155","222","222","BW","Body Weight","224.7","g","224.7","224.7","g","","33","2018-11-10","33"
"S-00001","BW","S-00001-155","223","223","BW","Body Weight","230.3","g","230.3","230.3","g","","34","2018-11-11","34"
"S-00001","BW","S-00001-155","224","224","BW","Body Weight","230.9","g","230.9","230.9","g","","35","2018-11-12","35"
"S-00001","BW","S-00001-155","225","225","BW","Body Weight","234.1","g","234.1","234.1","g","","36","2018-11-13","36"
"S-00001","BW","S-00001-155","226","226","BW","Body Weight","228.6","g","228.6","228.6","g","","37","2018-11-14","37"
"S-00001","BW","S-00001-155","227","227","BW","Body Weight","237.8","g","237.8","237.8","g","","38","2018-11-15","38"
"S-00001","BW","S-00001-155","228","228","BW","Body Weight","238.4","g","238.4","238.4","g","","39","2018-11-16","39"
"S-00001","BW","S-00001-155","229","229","BW","Body Weight","239.4","g","239.4","239.4","g","","40","2018-11-17","40"
"S-00001","BW","S-00001-155","230","230","BW","Body Weight","237.5","g","237.5","237.5","g","","41","2018-11-18","41"
"S-00001","BW","S-00001-155","231","231","BW","Body Weight","242.1","g","242.1","242.1","g","","42","2018-11-19","42"
"S-00001","BW","S-00001-155","232","232","BW","Body Weight","242.6","g","242.6","242.6","g","","43","2018-11-20","43"
"S-00001","BW","S-00001-155","233","233","BW","Body Weight","243.3","g","243.3","243.3","g","","44","2018-11-21","44"
"S-00001","BW","S-00001-155","234","234","BW","Body Weight","241.7","g","241.7","241.7","g","","45","2018-11-22","45"
"S-00001","BW","S-00001-155","235","235","TERMBW","Terminal Body Weight","247.4","g","247.4","247.4","g","","46","2018-11-23","46"
"S-00001","BW","S-00001-156","236","236","BW","Body Weight","137.1","g","137.1","137.1","g","","-1","2018-10-08","-1"
"S-00001","BW","S-00001-156","237","237","BW","Body Weight","144.7","g","144.7","144.7","g","","1","2018-10-09","1"
"S-00001","BW","S-00001-156","238","238","BW","Body Weight","147.3","g","147.3","147.3","g","","2","2018-10-10","2"
"S-00001","BW","S-00001-156","239","239","BW","Body Weight","150.8","g","150.8","150.8","g","","3","2018-10-11","3"
"S-00001","BW","S-00001-156","240","240","BW","Body Weight","147.5","g","147.5","147.5","g","","4","2018-10-12","4"
"S-00001","BW","S-00001-156","241","241","BW","Body Weight","152.9","g","152.9","152.9","g","","5","2018-10-13","5"
"S-00001","BW","S-00001-156","242","242","BW","Body Weight","157.9","g","157.9","157.9","g","","6","2018-10-14","6"
"S-00001","BW","S-00001-156","243","243","BW","Body Weight","161.8","g","161.8","161.8","g","","7","2018-10-15","7"
"S-00001","BW","S-00001-156","244","244","BW","Body Weight","157.8","g","157.8","157.8","g","","8","2018-10-16","8"
"S-00001","BW","S-00001-156","245","245","BW","Body Weight","166.6","g","166.6","166.6","g","","9","2018-10-17","9"
"S-00001","BW","S-00001-156","246","246","BW","Body Weight","171.1","g","171.1","171.1","g","","10","2018-10-18","10"
"S-00001","BW","S-00001-156","247","247","BW","Body Weight","176.1","g","176.1","176.1","g","","11","2018-10-19","11"
"S-00001","BW","S-00001-156","248","248","BW","Body Weight","169.1","g","169.1","169.1","g","","12","2018-10-20","12"
"S-00001","BW","S-00001-156","249","249","BW","Body Weight","178.8","g","178.8","178.8","g","","13","2018-10-21","13"
"S-00001","BW","S-00001-156","250","250","BW","Body Weight","180.0","g","180.0","180","g","","14","2018-10-22","14"
"S-00001","BW","S-00001-156","251","251","BW","Body Weight","182.6","g","182.6","182.6","g","","15","2018-10-23","15"
"S-00001","BW","S-00001-156","252","252","BW","Body Weight","183.6","g","183.6","183.6","g","","16","2018-10-24","16"
"S-00001","BW","S-00001-156","253","253","BW","Body Weight","182.7","g","182.7","182.7","g","","17","2018-10-25","17"
"S-00001","BW","S-00001-156","254","254","BW","Body Weight","187.9","g","187.9","187.9","g","","18","2018-10-26","18"
"S-00001","BW","S-00001-156","255","255","BW","Body Weight","190.4","g","190.4","190.4","g","","19","2018-10-27","19"
"S-00001","BW","S-00001-156","256","256","BW","Body Weight","194.3","g","194.3","194.3","g","","20","2018-10-28","20"
"S-00001","BW","S-00001-156","257","257","BW","Body Weight","189.7","g","189.7","189.7","g","","21","2018-10-29","21"
"S-00001","BW","S-00001-156","258","258","BW","Body Weight","196.2","g","196.2","196.2","g","","22","2018-10-30","22"
"S-00001","BW","S-00001-156","259","259","BW","Body Weight","199.0","g","199.0","199","g","","23","2018-10-31","23"
"S-00001","BW","S-00001-156","260","260","BW","Body Weight","203.3","g","203.3","203.3","g","","24","2018-11-01","24"
"S-00001","BW","S-00001-156","261","261","BW","Body Weight","199.1","g","199.1","199.1","g","","25","2018-11-02","25"
"S-00001","BW","S-00001-156","262","262","BW","Body Weight","203.2","g","203.2","203.2","g","","26","2018-11-03","26"
"S-00001","BW","S-00001-156","263","263","BW","Body Weight","205.3","g","205.3","205.3","g","","27","2018-11-04","27"
"S-00001","BW","S-00001-156","264","264","BW","Body Weight","207.7","g","207.7","207.7","g","","28","2018-11-05","28"
"S-00001","BW","S-00001-156","265","265","BW","Body Weight","203.5","g","203.5","203.5","g","","29","2018-11-06","29"
"S-00001","BW","S-00001-156","266","266","BW","Body Weight","208.0","g","208.0","208","g","","30","2018-11-07","30"
"S-00001","BW","S-00001-156","267","267","BW","Body Weight","211.7","g","211.7","211.7","g","","31","2018-11-08","31"
"S-00001","BW","S-00001-156","268","268","BW","Body Weight","212.6","g","212.6","212.6","g","","32","2018-11-09","32"
"S-00001","BW","S-00001-156","269","269","BW","Body Weight","212.3","g","212.3","212.3","g","","33","2018-11-10","33"
"S-00001","BW","S-00001-156","270","270","BW","Body Weight","215.6","g","215.6","215.6","g","","34","2018-11-11","34"
"S-00001","BW","S-00001-156","271","271","BW","Body Weight","218.5","g","218.5","218.5","g","","35","2018-11-12","35"
"S-00001","BW","S-00001-156","272","272","BW","Body Weight","217.1","g","217.1","217.1","g","","36","2018-11-13","36"
"S-00001","BW","S-00001-156","273","273","BW","Body Weight","215.4","g","215.4","215.4","g","","37","2018-11-14","37"
"S-00001","BW","S-00001-156","274","274","BW","Body Weight","221.0","g","221.0","221","g","","38","2018-11-15","38"
"S-00001","BW","S-00001-156","275","275","BW","Body Weight","222.8","g","222.8","222.8","g","","39","2018-11-16","39"
"S-00001","BW","S-00001-156","276","276","BW","Body Weight","223.9","g","223.9","223.9","g","","40","2018-11-17","40"
"S-00001","BW","S-00001-156","277","277","BW","Body Weight","220.9","g","220.9","220.9","g","","41","2018-11-18","41"
"S-00001","BW","S-00001-156","278","278","BW","Body Weight","223.9","g","223.9","223.9","g","","42","2018-11-19","42"
"S-00001","BW","S-00001-156","279","279","BW","Body Weight","225.4","g","225.4","225.4","g","","43","2018-11-20","43"
"S-00001","BW","S-00001-156","280","280","BW","Body Weight","225.0","g","225.0","225","g","","44","2018-11-21","44"
"S-00001","BW","S-00001-156","281","281","BW","Body Weight","219.9","g","219.9","219.9","g","","45","2018-11-22","45"
"S-00001","BW","S-00001-156","282","282","TERMBW","Terminal Body Weight","228.7","g","228.7","228.7","g","","46","2018-11-23","46"
"S-00001","BW","S-00001-251","283","283","BW","Body Weight","114.2","g","114.2","114.2","g","","-1","2018-10-08","-1"
"S-00001","BW","S-00001-251","284","284","BW","Body Weight","113.8","g","113.8","113.8","g","","1","2018-10-09","1"
"S-00001","BW","S-00001-251","285","285","BW","Body Weight","117.4","g","117.4","117.4","g","","2","2018-10-10","2"
"S-00001","BW","S-00001-251","286","286","BW","Body Weight","118.2","g","118.2","118.2","g","","3","2018-10-11","3"
"S-00001","BW","S-00001-251","287","287","BW","Body Weight","123.0","g","123.0","123","g","","4","2018-10-12","4"
"S-00001","BW","S-00001-251","288","288","BW","Body Weight","127.0","g","127.0","127","g","","5","2018-10-13","5"
"S-00001","BW","S-00001-251","289","289","BW","Body Weight","128.6","g","128.6","128.6","g","","6","2018-10-14","6"
"S-00001","BW","S-00001-251","290","290","BW","Body Weight","131.8","g","131.8","131.8","g","","7","2018-10-15","7"
"S-00001","BW","S-00001-251","291","291","BW","Body Weight","135.2","g","135.2","135.2","g","","8","2018-10-16","8"
"S-00001","BW","S-00001-251","292","292","BW","Body Weight","137.8","g","137.8","137.8","g","","9","2018-10-17","9"
"S-00001","BW","S-00001-251","293","293","BW","Body Weight","139.3","g","139.3","139.3","g","","10","2018-10-18","10"
"S-00001","BW","S-00001-251","294","294","BW","Body Weight","143.2","g","143.2","143.2","g","","11","2018-10-19","11"
"S-00001","BW","S-00001-251","295","295","BW","Body Weight","145.0","g","145.0","145","g","","12","2018-10-20","12"
"S-00001","BW","S-00001-251","296","296","BW","Body Weight","150.0","g","150.0","150","g","","13","2018-10-21","13"
"S-00001","BW","S-00001-251","297","297","BW","Body Weight","153.4","g","153.4","153.4","g","","14","2018-10-22","14"
"S-00001","BW","S-00001-251","298","298","BW","Body Weight","153.4","g","153.4","153.4","g","","15","2018-10-23","15"
"S-00001","BW","S-00001-251","299","299","BW","Body Weight","154.6","g","154.6","154.6","g","","16","2018-10-24","16"
"S-00001","BW","S-00001-251","300","300","BW","Body Weight","158.8","g","158.8","158.8","g","","17","2018-10-25","17"
"S-00001","BW","S-00001-251","301","301","BW","Body Weight","161.4","g","161.4","161.4","g","","18","2018-10-26","18"
"S-00001","BW","S-00001-251","302","302","BW","Body Weight","165.6","g","165.6","165.6","g","","19","2018-10-27","19"
"S-00001","BW","S-00001-251","303","303","BW","Body Weight","169.6","g","169.6","169.6","g","","20","2018-10-28","20"
"S-00001","BW","S-00001-251","304","304","BW","Body Weight","167.3","g","167.3","167.3","g","","21","2018-10-29","21"
"S-00001","BW","S-00001-251","305","305","BW","Body Weight","169.8","g","169.8","169.8","g","","22","2018-10-30","22"
"S-00001","BW","S-00001-251","306","306","BW","Body Weight","171.7","g","171.7","171.7","g","","23","2018-10-31","23"
"S-00001","BW","S-00001-251","307","307","BW","Body Weight","175.6","g","175.6","175.6","g","","24","2018-11-01","24"
"S-00001","BW","S-00001-251","308","308","BW","Body Weight","176.5","g","176.5","176.5","g","","25","2018-11-02","25"
"S-00001","BW","S-00001-251","309","309","BW","Body Weight","174.2","g","174.2","174.2","g","","26","2018-11-03","26"
"S-00001","BW","S-00001-251","310","310","BW","Body Weight","179.9","g","179.9","179.9","g","","27","2018-11-04","27"
"S-00001","BW","S-00001-251","311","311","BW","Body Weight","182.4","g","182.4","182.4","g","","28","2018-11-05","28"
"S-00001","BW","S-00001-251","312","312","BW","Body Weight","178.7","g","178.7","178.7","g","","29","2018-11-06","29"
"S-00001","BW","S-00001-251","313","313","BW","Body Weight","181.0","g","181.0","181","g","","30","2018-11-07","30"
"S-00001","BW","S-00001-251","314","314","BW","Body Weight","183.5","g","183.5","183.5","g","","31","2018-11-08","31"
"S-00001","BW","S-00001-251","315","315","BW","Body Weight","184.6","g","184.6","184.6","g","","32","2018-11-09","32"
"S-00001","BW","S-00001-251","316","316","BW","Body Weight","184.8","g","184.8","184.8","g","","33","2018-11-10","33"
"S-00001","BW","S-00001-251","317","317","BW","Body Weight","186.9","g","186.9","186.9","g","","34","2018-11-11","34"
"S-00001","BW","S-00001-251","318","318","BW","Body Weight","186.2","g","186.2","186.2","g","","35","2018-11-12","35"
"S-00001","BW","S-00001-251","319","319","BW","Body Weight","190.6","g","190.6","190.6","g","","36","2018-11-13","36"
"S-00001","BW","S-00001-251","320","320","BW","Body Weight","190.1","g","190.1","190.1","g","","37","2018-11-14","37"
"S-00001","BW","S-00001-251","321","321","BW","Body Weight","196.3","g","196.3","196.3","g","","38","2018-11-15","38"
"S-00001","BW","S-00001-251","322","322","BW","Body Weight","193.1","g","193.1","193.1","g","","39","2018-11-16","39"
"S-00001","BW","S-00001-251","323","323","BW","Body Weight","195.1","g","195.1","195.1","g","","40","2018-11-17","40"
"S-00001","BW","S-00001-251","324","324","BW","Body Weight","196.5","g","196.5","196.5","g","","41","2018-11-18","41"
"S-00001","BW","S-00001-251","325","325","BW","Body Weight","198.9","g","198.9","198.9","g","","42","2018-11-19","42"
"S-00001","BW","S-00001-251","326","326","BW","Body Weight","195.7","g","195.7","195.7","g","","43","2018-11-20","43"
"S-00001","BW","S-00001-251","327","327","BW","Body Weight","196.1","g","196.1","196.1","g","","44","2018-11-21","44"
"S-00001","BW","S-00001-251","328","328","BW","Body Weight","201.9","g","201.9","201.9","g","","45","2018-11-22","45"
"S-00001","BW","S-00001-251","329","329","TERMBW","Terminal Body Weight","206.7","g","206.7","206.7","g","","46","2018-11-23","46"
"S-00001","BW","S-00001-252","330","330","BW","Body Weight","139.5","g","139.5","139.5","g","","-1","2018-10-08","-1"
"S-00001","BW","S-00001-252","331","331","BW","Body Weight","144.3","g","144.3","144.3","g","","1","2018-10-09","1"
"S-00001","BW","S-00001-252","332","332","BW","Body Weight","145.8","g","145.8","145.8","g","","2","2018-10-10","2"
"S-00001","BW","S-00001-252","333","333","BW","Body Weight","147.0","g","147.0","147","g","","3","2018-10-11","3"
"S-00001","BW","S-00001-252","334","334","BW","Body Weight","148.8","g","148.8","148.8","g","","4","2018-10-12","4"
"S-00001","BW","S-00001-252","335","335","BW","Body Weight","155.0","g","155.0","155","g","","5","2018-10-13","5"
"S-00001","BW","S-00001-252","336","336","BW","Body Weight","155.8","g","155.8","155.8","g","","6","2018-10-14","6"
"S-00001","BW","S-00001-252","337","337","BW","Body Weight","159.9","g","159.9","159.9","g","","7","2018-10-15","7"
"S-00001","BW","S-00001-252","338","338","BW","Body Weight","164.0","g","164.0","164","g","","8","2018-10-16","8"
"S-00001","BW","S-00001-252","339","339","BW","Body Weight","166.9","g","166.9","166.9","g","","9","2018-10-17","9"
"S-00001","BW","S-00001-252","340","340","BW","Body Weight","167.8","g","167.8","167.8","g","","10","2018-10-18","10"
"S-00001","BW","S-00001-252","341","341","BW","Body Weight","171.5","g","171.5","171.5","g","","11","2018-10-19","11"
"S-00001","BW","S-00001-252","342","342","BW","Body Weight","173.3","g","173.3","173.3","g","","12","2018-10-20","12"
"S-00001","BW","S-00001-252","343","343","BW","Body Weight","177.6","g","177.6","177.6","g","","13","2018-10-21","13"
"S-00001","BW","S-00001-252","344","344","BW","Body Weight","176.3","g","176.3","176.3","g","","14","2018-10-22","14"
"S-00001","BW","S-00001-252","345","345","BW","Body Weight","179.7","g","179.7","179.7","g","","15","2018-10-23","15"
"S-00001","BW","S-00001-252","346","346","BW","Body Weight","182.0","g","182.0","182","g","","16","2018-10-24","16"
"S-00001","BW","S-00001-252","347","347","BW","Body Weight","184.5","g","184.5","184.5","g","","17","2018-10-25","17"
"S-00001","BW","S-00001-252","348","348","BW","Body Weight","184.6","g","184.6","184.6","g","","18","2018-10-26","18"
"S-00001","BW","S-00001-252","349","349","BW","Body Weight","186.1","g","186.1","186.1","g","","19","2018-10-27","19"
"S-00001","BW","S-00001-252","350","350","BW","Body Weight","193.2","g","193.2","193.2","g","","20","2018-10-28","20"
"S-00001","BW","S-00001-252","351","351","BW","Body Weight","193.7","g","193.7","193.7","g","","21","2018-10-29","21"
"S-00001","BW","S-00001-252","352","352","BW","Body Weight","195.4","g","195.4","195.4","g","","22","2018-10-30","22"
"S-00001","BW","S-00001-252","353","353","BW","Body Weight","199.4","g","199.4","199.4","g","","23","2018-10-31","23"
"S-00001","BW","S-00001-252","354","354","BW","Body Weight","199.1","g","199.1","199.1","g","","24","2018-11-01","24"
"S-00001","BW","S-00001-252","355","355","BW","Body Weight","203.4","g","203.4","203.4","g","","25","2018-11-02","25"
"S-00001","BW","S-00001-252","356","356","BW","Body Weight","204.1","g","204.1","204.1","g","","26","2018-11-03","26"
"S-00001","BW","S-00001-252","357","357","BW","Body Weight","206.1","g","206.1","206.1","g","","27","2018-11-04","27"
"S-00001","BW","S-00001-252","358","358","BW","Body Weight","207.2","g","207.2","207.2","g","","28","2018-11-05","28"
"S-00001","BW","S-00001-252","359","359","BW","Body Weight","209.6","g","209.6","209.6","g","","29","2018-11-06","29"
"S-00001","BW","S-00001-252","360","360","BW","Body Weight","208.1","g","208.1","208.1","g","","30","2018-11-07","30"
"S-00001","BW","S-00001-252","361","361","BW","Body Weight","209.4","g","209.4","209.4","g","","31","2018-11-08","31"
"S-00001","BW","S-00001-252","362","362","BW","Body Weight","214.0","g","214.0","214","g","","32","2018-11-09","32"
"S-00001","BW","S-00001-252","363","363","BW","Body Weight","213.9","g","213.9","213.9","g","","33","2018-11-10","33"
"S-00001","BW","S-00001-252","364","364","BW","Body Weight","217.0","g","217.0","217","g","","34","2018-11-11","34"
"S-00001","BW","S-00001-252","365","365","BW","Body Weight","216.9","g","216.9","216.9","g","","35","2018-11-12","35"
"S-00001","BW","S-00001-252","366","366","BW","Body Weight","221.6","g","221.6","221.6","g","","36","2018-11-13","36"
"S-00001","BW","S-00001-252","367","367","BW","Body Weight","220.1","g","220.1","220.1","g","","37","2018-11-14","37"
"S-00001","BW","S-00001-252","368","368","BW","Body Weight","224.3","g","224.3","224.3","g","","38","2018-11-15","38"
"S-00001","BW","S-00001-252","369","369","BW","Body Weight","223.4","g","223.4","223.4","g","","39","2018-11-16","39"
"S-00001","BW","S-00001-252","370","370","BW","Body Weight","222.2","g","222.2","222.2","g","","40","2018-11-17","40"
"S-00001","BW","S-00001-252","371","371","BW","Body Weight","226.3","g","226.3","226.3","g","","41","2018-11-18","41"
"S-00001","BW","S-00001-252","372","372","BW","Body Weight","227.4","g","227.4","227.4","g","","42","2018-11-19","42"
"S-00001","BW","S-00001-252","373","373","BW","Body Weight","228.5","g","228.5","228.5","g","","43","2018-11-20","43"
"S-00001","BW","S-00001-252","374","374","BW","Body Weight","230.0","g","230.0","230","g","","44","2018-11-21","44"
"S-00001","BW","S-00001-252","375","375","BW","Body Weight","232.9","g","232.9","232.9","g","","45","2018-11-22","45"
"S-00001","BW","S-00001-252","376","376","TERMBW","Terminal Body Weight","235.3","g","235.3","235.3","g","","46","2018-11-23","46"
"S-00001","BW","S-00001-253","377","377","BW","Body Weight","130.4","g","130.4","130.4","g","","-1","2018-10-08","-1"
"S-00001","BW","S-00001-253","378","378","BW","Body Weight","131.4","g","131.4","131.4","g","","1","2018-10-09","1"
"S-00001","BW","S-00001-253","379","379","BW","Body Weight","131.9","g","131.9","131.9","g","","2","2018-10-10","2"
"S-00001","BW","S-00001-253","380","380","BW","Body Weight","130.6","g","130.6","130.6","g","","3","2018-10-11","3"
"S-00001","BW","S-00001-253","381","381","BW","Body Weight","134.8","g","134.8","134.8","g","","4","2018-10-12","4"
"S-00001","BW","S-00001-253","382","382","BW","Body Weight","139.9","g","139.9","139.9","g","","5","2018-10-13","5"
"S-00001","BW","S-00001-253","383","383","BW","Body Weight","142.6","g","142.6","142.6","g","","6","2018-10-14","6"
"S-00001","BW","S-00001-253","384","384","BW","Body Weight","146.1","g","146.1","146.1","g","","7","2018-10-15","7"
"S-00001","BW","S-00001-253","385","385","BW","Body Weight","148.6","g","148.6","148.6","g","","8","2018-10-16","8"
"S-00001","BW","S-00001-253","386","386","BW","Body Weight","154.5","g","154.5","154.5","g","","9","2018-10-17","9"
"S-00001","BW","S-00001-253","387","387","BW","Body Weight","154.7","g","154.7","154.7","g","","10","2018-10-18","10"
"S-00001","BW","S-00001-253","388","388","BW","Body Weight","158.2","g","158.2","158.2","g","","11","2018-10-19","11"
"S-00001","BW","S-00001-253","389","389","BW","Body Weight","162.1","g","162.1","162.1","g","","12","2018-10-20","12"
"S-00001","BW","S-00001-253","390","390","BW","Body Weight","166.3","g","166.3","166.3","g","","13","2018-10-21","13"
"S-00001","BW","S-00001-253","391","391","BW","Body Weight","167.6","g","167.6","167.6","g","","14","2018-10-22","14"
"S-00001","BW","S-00001-253","392","392","BW","Body Weight","171.4","g","171.4","171.4","g","","15","2018-10-23","15"
"S-00001","BW","S-00001-253","393","393","BW","Body Weight","169.7","g","169.7","169.7","g","","16","2018-10-24","16"
"S-00001","BW","S-00001-253","394","394","BW","Body Weight","172.3","g","172.3","172.3","g","","17","2018-10-25","17"
"S-00001","BW","S-00001-253","395","395","BW","Body Weight","174.3","g","174.3","174.3","g","","18","2018-10-26","18"
"S-00001","BW","S-00001-253","396","396","BW","Body Weight","178.8","g","178.8","178.8","g","","19","2018-10-27","19"
"S-00001","BW","S-00001-253","397","397","BW","Body Weight","183.2","g","183.2","183.2","g","","20","2018-10-28","20"
"S-00001","BW","S-00001-253","398","398","BW","Body Weight","181.9","g","181.9","181.9","g","","21","2018-10-29","21"
"S-00001","BW","S-00001-253","399","399","BW","Body Weight","184.1","g","184.1","184.1","g","","22","2018-10-30","22"
"S-00001","BW","S-00001-253","400","400","BW","Body Weight","187.8","g","187.8","187.8","g","","23","2018-10-31","23"
"S-00001","BW","S-00001-253","401","401","BW","Body Weight","192.1","g","192.1","192.1","g","","24","2018-11-01","24"
"S-00001","BW","S-00001-253","402","402","BW","Body Weight","192.2","g","192.2","192.2","g","","25","2018-11-02","25"
"S-00001","BW","S-00001-253","403","403","BW","Body Weight","192.4","g","192.4","192.4","g","","26","2018-11-03","26"
"S-00001","BW","S-00001-253","404","404","BW","Body Weight","196.0","g","196.0","196","g","","27","2018-11-04","27"
"S-00001","BW","S-00001-253","405","405","BW","Body Weight","196.8","g","196.8","196.8","g","","28","2018-11-05","28"
"S-00001","BW","S-00001-253","406","406","BW","Body Weight","197.6","g","197.6","197.6","g","","29","2018-11-06","29"
"S-00001","BW","S-00001-253","407","407","BW","Body Weight","199.4","g","199.4","199.4","g","","30","2018-11-07","30"
"S-00001","BW","S-00001-253","408","408","BW","Body Weight","201.6","g","201.6","201.6","g","","31","2018-11-08","31"
"S-00001","BW","S-00001-253","409","409","BW","Body Weight","203.8","g","203.8","203.8","g","","32","2018-11-09","32"
"S-00001","BW","S-00001-253","410","410","BW","Body Weight","206.7","g","206.7","206.7","g","","33","2018-11-10","33"
"S-00001","BW","S-00001-253","411","411","BW","Body Weight","205.2","g","205.2","205.2","g","","34","2018-11-11","34"
"S-00001","BW","S-00001-253","412","412","BW","Body Weight","206.3","g","206.3","206.3","g","","35","2018-11-12","35"
"S-00001","BW","S-00001-253","413","413","BW","Body Weight","210.5","g","210.5","210.5","g","","36","2018-11-13","36"
"S-00001","BW","S-00001-253","414","414","BW","Body Weight","208.0","g","208.0","208","g","","37","2018-11-14","37"
"S-00001","BW","S-00001-253","415","415","BW","Body Weight","214.7","g","214.7","214.7","g","","38","2018-11-15","38"
"S-00001","BW","S-00001-253","416","416","BW","Body Weight","212.4","g","212.4","212.4","g","","39","2018-11-16","39"
"S-00001","BW","S-00001-253","417","417","BW","Body Weight","215.9","g","215.9","215.9","g","","40","2018-11-17","40"
"S-00001","BW","S-00001-253","418","418","BW","Body Weight","215.8","g","215.8","215.8","g","","41","2018-11-18","41"
"S-00001","BW","S-00001-253","419","419","BW","Body Weight","216.2","g","216.2","216.2","g","","42","2018-11-19","42"
"S-00001","BW","S-00001-253","420","420","BW","Body Weight","214.0","g","214.0","214","g","","43","2018-11-20","43"
"S-00001","BW","S-00001-253","421","421","BW","Body Weight","217.4","g","217.4","217.4","g","","44","2018-11-21","44"
"S-00001","BW","S-00001-253","422","422","BW","Body Weight","221.5","g","221.5","221.5","g","","45","2018-11-22","45"
"S-00001","BW","S-00001-253","423","423","TERMBW","Terminal Body Weight","222.0","g","222.0","222","g","","46","2018-11-23","46"
"S-00001","BW","S-00001-254","424","424","BW","Body Weight","124.6","g","124.6","124.6","g","","-1","2018-10-08","-1"
"S-00001","BW","S-00001-254","425","425","BW","Body Weight","128.7","g","128.7","128.7","g","","1","2018-10-09","1"
"S-00001","BW","S-00001-254","426","426","BW","Body Weight","131.3","g","131.3","131.3","g","","2","2018-10-10","2"
"S-00001","BW","S-00001-254","427","427","BW","Body Weight","136.3","g","136.3","136.3","g","","3","2018-10-11","3"
"S-00001","BW","S-00001-254","428","428","BW","Body Weight","136.3","g","136.3","136.3","g","","4","2018-10-12","4"
"S-00001","BW","S-00001-254","429","429","BW","Body Weight","141.9","g","141.9","141.9","g","","5","2018-10-13","5"
"S-00001","BW","S-00001-254","430","430","BW","Body Weight","144.4","g","144.4","144.4","g","","6","2018-10-14","6"
"S-00001","BW","S-00001-254","431","431","BW","Body Weight","149.0","g","149.0","149","g","","7","2018-10-15","7"
"S-00001","BW","S-00001-254","432","432","BW","Body Weight","155.9","g","155.9","155.9","g","","8","2018-10-16","8"
"S-00001","BW","S-00001-254","433","433","BW","Body Weight","156.3","g","156.3","156.3","g","","9","2018-10-17","9"
"S-00001","BW","S-00001-254","434","434","BW","Body Weight","158.6","g","158.6","158.6","g","","10","2018-10-18","10"
"S-00001","BW","S-00001-254","435","435","BW","Body Weight","163.2","g","163.2","163.2","g","","11","2018-10-19","11"
"S-00001","BW","S-00001-254","436","436","BW","Body Weight","164.0","g","164.0","164","g","","12","2018-10-20","12"
"S-00001","BW","S-00001-254","437","437","BW","Body Weight","170.9","g","170.9","170.9","g","","13","2018-10-21","13"
"S-00001","BW","S-00001-254","438","438","BW","Body Weight","171.6","g","171.6","171.6","g","","14","2018-10-22","14"
"S-00001","BW","S-00001-254","439","439","BW","Body Weight","174.8","g","174.8","174.8","g","","15","2018-10-23","15"
"S-00001","BW","S-00001-254","440","440","BW","Body Weight","177.6","g","177.6","177.6","g","","16","2018-10-24","16"
"S-00001","BW","S-00001-254","441","441","BW","Body Weight","182.2","g","182.2","182.2","g","","17","2018-10-25","17"
"S-00001","BW","S-00001-254","442","442","BW","Body Weight","185.4","g","185.4","185.4","g","","18","2018-10-26","18"
"S-00001","BW","S-00001-254","443","443","BW","Body Weight","188.0","g","188.0","188","g","","19","2018-10-27","19"
"S-00001","BW","S-00001-254","444","444","BW","Body Weight","190.7","g","190.7","190.7","g","","20","2018-10-28","20"
"S-00001","BW","S-00001-254","445","445","BW","Body Weight","191.6","g","191.6","191.6","g","","21","2018-10-29","21"
"S-00001","BW","S-00001-254","446","446","BW","Body Weight","197.5","g","197.5","197.5","g","","22","2018-10-30","22"
"S-00001","BW","S-00001-254","447","447","BW","Body Weight","198.7","g","198.7","198.7","g","","23","2018-10-31","23"
"S-00001","BW","S-00001-254","448","448","BW","Body Weight","201.3","g","201.3","201.3","g","","24","2018-11-01","24"
"S-00001","BW","S-00001-254","449","449","BW","Body Weight","203.7","g","203.7","203.7","g","","25","2018-11-02","25"
"S-00001","BW","S-00001-254","450","450","BW","Body Weight","205.3","g","205.3","205.3","g","","26","2018-11-03","26"
"S-00001","BW","S-00001-254","451","451","BW","Body Weight","209.4","g","209.4","209.4","g","","27","2018-11-04","27"
"S-00001","BW","S-00001-254","452","452","BW","Body Weight","209.3","g","209.3","209.3","g","","28","2018-11-05","28"
"S-00001","BW","S-00001-254","453","453","BW","Body Weight","212.1","g","212.1","212.1","g","","29","2018-11-06","29"
"S-00001","BW","S-00001-254","454","454","BW","Body Weight","211.5","g","211.5","211.5","g","","30","2018-11-07","30"
"S-00001","BW","S-00001-254","455","455","BW","Body Weight","213.5","g","213.5","213.5","g","","31","2018-11-08","31"
"S-00001","BW","S-00001-254","456","456","BW","Body Weight","216.9","g","216.9","216.9","g","","32","2018-11-09","32"
"S-00001","BW","S-00001-254","457","457","BW","Body Weight","217.4","g","217.4","217.4","g","","33","2018-11-10","33"
"S-00001","BW","S-00001-254","458","458","BW","Body Weight","218.9","g","218.9","218.9","g","","34","2018-11-11","34"
"S-00001","BW","S-00001-254","459","459","BW","Body Weight","221.6","g","221.6","221.6","g","","35","2018-11-12","35"
"S-00001","BW","S-00001-254","460","460","BW","Body Weight","225.6","g","225.6","225.6","g","","36","2018-11-13","36"
"S-00001","BW","S-00001-254","461","461","BW","Body Weight","226.1","g","226.1","226.1","g","","37","2018-11-14","37"
"S-00001","BW","S-00001-254","462","462","BW","Body Weight","229.0","g","229.0","229","g","","38","2018-11-15","38"
"S-00001","BW","S-00001-254","463","463","BW","Body Weight","227.0","g","227.0","227","g","","39","2018-11-16","39"
"S-00001","BW","S-00001-254","464","464","BW","Body Weight","226.4","g","226.4","226.4","g","","40","2018-11-17","40"
"S-00001","BW","S-00001-254","465","465","BW","Body Weight","230.1","g","230.1","230.1","g","","41","2018-11-18","41"
"S-00001","BW","S-00001-254","466","466","BW","Body Weight","230.7","g","230.7","230.7","g","","42","2018-11-19","42"
"S-00001","BW","S-00001-254","467","467","BW","Body Weight","232.2","g","232.2","232.2","g","","43","2018-11-20","43"
"S-00001","BW","S-00001-254","468","468","BW","Body Weight","232.1","g","232.1","232.1","g","","44","2018-11-21","44"
"S-00001","BW","S-00001-254","469","469","BW","Body Weight","238.1","g","238.1","238.1","g","","45","2018-11-22","45"
"S-00001","BW","S-00001-254","470","470","TERMBW","Terminal Body Weight","235.8","g","235.8","235.8","g","","46","2018-11-23","46"
"S-00001","BW","S-00001-255","471","471","BW","Body Weight","138.8","g","138.8","138.8","g","","-1","2018-10-08","-1"
"S-00001","BW","S-00001-255","472","472","BW","Body Weight","136.9","g","136.9","136.9","g","","1","2018-10-09","1"
"S-00001","BW","S-00001-255","473","473","BW","Body Weight","140.9","g","140.9","140.9","g","","2","2018-10-10","2"
"S-00001","BW","S-00001-255","474","474","BW","Body Weight","143.0","g","143.0","143","g","","3","2018-10-11","3"
"S-00001","BW","S-00001-255","475","475","BW","Body Weight","144.5","g","144.5","144.5","g","","4","2018-10-12","4"
"S-00001","BW","S-00001-255","476","476","BW","Body Weight","147.2","g","147.2","147.2","g","","5","2018-10-13","5"
"S-00001","BW","S-00001-255","477","477","BW","Body Weight","149.8","g","149.8","149.8","g","","6","2018-10-14","6"
"S-00001","BW","S-00001-255","478","478","BW","Body Weight","155.9","g","155.9","155.9","g","","7","2018-10-15","7"
"S-00001","BW","S-00001-255","479","479","BW","Body Weight","158.3","g","158.3","158.3","g","","8","2018-10-16","8"
"S-00001","BW","S-00001-255","480","480","BW","Body Weight","163.8","g","163.8","163.8","g","","9","2018-10-17","9"
"S-00001","BW","S-00001-255","481","481","BW","Body Weight","164.7","g","164.7","164.7","g","","10","2018-10-18","10"
"S-00001","BW","S-00001-255","482","482","BW","Body Weight","166.3","g","166.3","166.3","g","","11","2018-10-19","11"
"S-00001","BW","S-00001-255","483","483","BW","Body Weight","170.5","g","170.5","170.5","g","","12","2018-10-20","12"
"S-00001","BW","S-00001-255","484","484","BW","Body Weight","177.4","g","177.4","177.4","g","","13","2018-10-21","13"
"S-00001","BW","S-00001-255","485","485","BW","Body Weight","173.3","g","173.3","173.3","g","","14","2018-10-22","14"
"S-00001","BW","S-00001-255","486","486","BW","Body Weight","177.8","g","177.8","177.8","g","","15","2018-10-23","15"
"S-00001","BW","S-00001-255","487","487","BW","Body Weight","183.0","g","183.0","183","g","","16","2018-10-24","16"
"S-00001","BW","S-00001-255","488","488","BW","Body Weight","186.2","g","186.2","186.2","g","","17","2018-10-25","17"
"S-00001","BW","S-00001-255","489","489","BW","Body Weight","188.8","g","188.8","188.8","g","","18","2018-10-26","18"
"S-00001","BW","S-00001-255","490","490","BW","Body Weight","189.7","g","189.7","189.7","g","","19","2018-10-27","19"
"S-00001","BW","S-00001-255","491","491","BW","Body Weight","191.6","g","191.6","191.6","g","","20","2018-10-28","20"
"S-00001","BW","S-00001-255","492","492","BW","Body Weight","192.8","g","192.8","192.8","g","","21","2018-10-29","21"
"S-00001","BW","S-00001-255","493","493","BW","Body Weight","197.4","g","197.4","197.4","g","","22","2018-10-30","22"
"S-00001","BW","S-00001-255","494","494","BW","Body Weight","199.7","g","199.7","199.7","g","","23","2018-10-31","23"
"S-00001","BW","S-00001-255","495","495","BW","Body Weight","200.7","g","200.7","200.7","g","","24","2018-11-01","24"
"S-00001","BW","S-00001-255","496","496","BW","Body Weight","202.0","g","202.0","202","g","","25","2018-11-02","25"
"S-00001","BW","S-00001-255","497","497","BW","Body Weight","203.8","g","203.8","203.8","g","","26","2018-11-03","26"
"S-00001","BW","S-00001-255","498","498","BW","Body Weight","207.7","g","207.7","207.7","g","","27","2018-11-04","27"
"S-00001","BW","S-00001-255","499","499","BW","Body Weight","210.9","g","210.9","210.9","g","","28","2018-11-05","28"
"S-00001","BW","S-00001-255","500","500","BW","Body Weight","209.4","g","209.4","209.4","g","","29","2018-11-06","29"
"S-00001","BW","S-00001-255","501","501","BW","Body Weight","209.6","g","209.6","209.6","g","","30","2018-11-07","30"
"S-00001","BW","S-00001-255","502","502","BW","Body Weight","211.8","g","211.8","211.8","g","","31","2018-11-08","31"
"S-00001","BW","S-00001-255","503","503","BW","Body Weight","216.0","g","216.0","216","g","","32","2018-11-09","32"
"S-00001","BW","S-00001-255","504","504","BW","Body Weight","216.0","g","216.0","216","g","","33","2018-11-10","33"
"S-00001","BW","S-00001-255","505","505","BW","Body Weight","219.4","g","219.4","219.4","g","","34","2018-11-11","34"
"S-00001","BW","S-00001-255","506","506","BW","Body Weight","222.4","g","222.4","222.4","g","","35","2018-11-12","35"
"S-00001","BW","S-00001-255","507","507","BW","Body Weight","221.6","g","221.6","221.6","g","","36","2018-11-13","36"
"S-00001","BW","S-00001-255","508","508","BW","Body Weight","218.8","g","218.8","218.8","g","","37","2018-11-14","37"
"S-00001","BW","S-00001-255","509","509","BW","Body Weight","225.2","g","225.2","225.2","g","","38","2018-11-15","38"
"S-00001","BW","S-00001-255","510","510","BW","Body Weight","225.3","g","225.3","225.3","g","","39","2018-11-16","39"
"S-00001","BW","S-00001-255","511","511","BW","Body Weight","226.1","g","226.1","226.1","g","","40","2018-11-17","40"
"S-00001","BW","S-00001-255","512","512","BW","Body Weight","225.8","g","225.8","225.8","g","","41","2018-11-18","41"
"S-00001","BW","S-00001-255","513","513","BW","Body Weight","226.7","g","226.7","226.7","g","","42","2018-11-19","42"
"S-00001","BW","S-00001-255","514","514","BW","Body Weight","230.2","g","230.2","230.2","g","","43","2018-11-20","43"
"S-00001","BW","S-00001-255","515","515","BW","Body Weight","232.0","g","232.0","232","g","","44","2018-11-21","44"
"S-00001","BW","S-00001-255","516","516","BW","Body Weight","234.6","g","234.6","234.6","g","","45","2018-11-22","45"
"S-00001","BW","S-00001-255","517","517","TERMBW","Terminal Body Weight","238.0","g","238.0","238","g","","46","2018-11-23","46"
"S-00001","BW","S-00001-256","518","518","BW","Body Weight","125.4","g","125.4","125.4","g","","-1","2018-10-08","-1"
"S-00001","BW","S-00001-256","519","519","BW","Body Weight","131.3","g","131.3","131.3","g","","1","2018-10-09","1"
"S-00001","BW","S-00001-256","520","520","BW","Body Weight","132.1","g","132.1","132.1","g","","2","2018-10-10","2"
"S-00001","BW","S-00001-256","521","521","BW","Body Weight","131.7","g","131.7","131.7","g","","3","2018-10-11","3"
"S-00001","BW","S-00001-256","522","522","BW","Body Weight","138.2","g","138.2","138.2","g","","4","2018-10-12","4"
"S-00001","BW","S-00001-256","523","523","BW","Body Weight","138.5","g","138.5","138.5","g","","5","2018-10-13","5"
"S-00001","BW","S-00001-256","524","524","BW","Body Weight","140.4","g","140.4","140.4","g","","6","2018-10-14","6"
"S-00001","BW","S-00001-256","525","525","BW","Body Weight","143.5","g","143.5","143.5","g","","7","2018-10-15","7"
"S-00001","BW","S-00001-256","526","526","BW","Body Weight","147.4","g","147.4","147.4","g","","8","2018-10-16","8"
"S-00001","BW","S-00001-256","527","527","BW","Body Weight","152.5","g","152.5","152.5","g","","9","2018-10-17","9"
"S-00001","BW","S-00001-256","528","528","BW","Body Weight","153.6","g","153.6","153.6","g","","10","2018-10-18","10"
"S-00001","BW","S-00001-256","529","529","BW","Body Weight","157.5","g","157.5","157.5","g","","11","2018-10-19","11"
"S-00001","BW","S-00001-256","530","530","BW","Body Weight","162.0","g","162.0","162","g","","12","2018-10-20","12"
"S-00001","BW","S-00001-256","531","531","BW","Body Weight","165.3","g","165.3","165.3","g","","13","2018-10-21","13"
"S-00001","BW","S-00001-256","532","532","BW","Body Weight","166.1","g","166.1","166.1","g","","14","2018-10-22","14"
"S-00001","BW","S-00001-256","533","533","BW","Body Weight","170.8","g","170.8","170.8","g","","15","2018-10-23","15"
"S-00001","BW","S-00001-256","534","534","BW","Body Weight","172.5","g","172.5","172.5","g","","16","2018-10-24","16"
"S-00001","BW","S-00001-256","535","535","BW","Body Weight","175.3","g","175.3","175.3","g","","17","2018-10-25","17"
"S-00001","BW","S-00001-256","536","536","BW","Body Weight","177.6","g","177.6","177.6","g","","18","2018-10-26","18"
"S-00001","BW","S-00001-256","537","537","BW","Body Weight","178.2","g","178.2","178.2","g","","19","2018-10-27","19"
"S-00001","BW","S-00001-256","538","538","BW","Body Weight","181.0","g","181.0","181","g","","20","2018-10-28","20"
"S-00001","BW","S-00001-256","539","539","BW","Body Weight","185.6","g","185.6","185.6","g","","21","2018-10-29","21"
"S-00001","BW","S-00001-256","540","540","BW","Body Weight","185.9","g","185.9","185.9","g","","22","2018-10-30","22"
"S-00001","BW","S-00001-256","541","541","BW","Body Weight","187.5","g","187.5","187.5","g","","23","2018-10-31","23"
"S-00001","BW","S-00001-256","542","542","BW","Body Weight","190.0","g","190.0","190","g","","24","2018-11-01","24"
"S-00001","BW","S-00001-256","543","543","BW","Body Weight","191.4","g","191.4","191.4","g","","25","2018-11-02","25"
"S-00001","BW","S-00001-256","544","544","BW","Body Weight","193.5","g","193.5","193.5","g","","26","2018-11-03","26"
"S-00001","BW","S-00001-256","545","545","BW","Body Weight","195.8","g","195.8","195.8","g","","27","2018-11-04","27"
"S-00001","BW","S-00001-256","546","546","BW","Body Weight","196.9","g","196.9","196.9","g","","28","2018-11-05","28"
"S-00001","BW","S-00001-256","547","547","BW","Body Weight","197.3","g","197.3","197.3","g","","29","2018-11-06","29"
"S-00001","BW","S-00001-256","548","548","BW","Body Weight","200.7","g","200.7","200.7","g","","30","2018-11-07","30"
"S-00001","BW","S-00001-256","549","549","BW","Body Weight","201.9","g","201.9","201.9","g","","31","2018-11-08","31"
"S-00001","BW","S-00001-256","550","550","BW","Body Weight","202.4","g","202.4","202.4","g","","32","2018-11-09","32"
"S-00001","BW","S-00001-256","551","551","BW","Body Weight","205.4","g","205.4","205.4","g","","33","2018-11-10","33"
"S-00001","BW","S-00001-256","552","552","BW","Body Weight","205.0","g","205.0","205","g","","34","2018-11-11","34"
"S-00001","BW","S-00001-256","553","553","BW","Body Weight","208.0","g","208.0","208","g","","35","2018-11-12","35"
"S-00001","BW","S-00001-256","554","554","BW","Body Weight","208.4","g","208.4","208.4","g","","36","2018-11-13","36"
"S-00001","BW","S-00001-256","555","555","BW","Body Weight","207.9","g","207.9","207.9","g","","37","2018-11-14","37"
"S-00001","BW","S-00001-256","556","556","BW","Body Weight","214.0","g","214.0","214","g","","38","2018-11-15","38"
"S-00001","BW","S-00001-256","557","557","BW","Body Weight","209.2","g","209.2","209.2","g","","39","2018-11-16","39"
"S-00001","BW","S-00001-256","558","558","BW","Body Weight","211.2","g","211.2","211.2","g","","40","2018-11-17","40"
"S-00001","BW","S-00001-256","559","559","BW","Body Weight","214.0","g","214.0","214","g","","41","2018-11-18","41"
"S-00001","BW","S-00001-256","560","560","BW","Body Weight","214.2","g","214.2","214.2","g","","42","2018-11-19","42"
"S-00001","BW","S-00001-256","561","561","BW","Body Weight","214.9","g","214.9","214.9","g","","43","2018-11-20","43"
"S-00001","BW","S-00001-256","562","562","BW","Body Weight","213.0","g","213.0","213","g","","44","2018-11-21","44"
"S-00001","BW","S-00001-256","563","563","BW","Body Weight","219.5","g","219.5","219.5","g","","45","2018-11-22","45"
"S-00001","BW","S-00001-256","564","564","TERMBW","Terminal Body Weight","222.7","g","222.7","222.7","g","","46","2018-11-23","46"
"S-00001","BW","S-00001-351","565","565","BW","Body Weight","115.2","g","115.2","115.2","g","","-1","2018-10-08","-1"
"S-00001","BW","S-00001-351","566","566","BW","Body Weight","110.8","g","110.8","110.8","g","","1","2018-10-09","1"
"S-00001","BW","S-00001-351","567","567","BW","Body Weight","115.3","g","115.3","115.3","g","","2","2018-10-10","2"
"S-00001","BW","S-00001-351","568","568","BW","Body Weight","118.0","g","118.0","118","g","","3","2018-10-11","3"
"S-00001","BW","S-00001-351","569","569","BW","Body Weight","121.9","g","121.9","121.9","g","","4","2018-10-12","4"
"S-00001","BW","S-00001-351","570","570","BW","Body Weight","124.0","g","124.0","124","g","","5","2018-10-13","5"
"S-00001","BW","S-00001-351","571","571","BW","Body Weight","127.6","g","127.6","127.6","g","","6","2018-10-14","6"
"S-00001","BW","S-00001-351","572","572","BW","Body Weight","129.5","g","129.5","129.5","g","","7","2018-10-15","7"
"S-00001","BW","S-00001-351","573","573","BW","Body Weight","134.8","g","134.8","134.8","g","","8","2018-10-16","8"
"S-00001","BW","S-00001-351","574","574","BW","Body Weight","133.3","g","133.3","133.3","g","","9","2018-10-17","9"
"S-00001","BW","S-00001-351","575","575","BW","Body Weight","139.4","g","139.4","139.4","g","","10","2018-10-18","10"
"S-00001","BW","S-00001-351","576","576","BW","Body Weight","141.4","g","141.4","141.4","g","","11","2018-10-19","11"
"S-00001","BW","S-00001-351","577","577","BW","Body Weight","145.5","g","145.5","145.5","g","","12","2018-10-20","12"
"S-00001","BW","S-00001-351","578","578","BW","Body Weight","147.4","g","147.4","147.4","g","","13","2018-10-21","13"
"S-00001","BW","S-00001-351","579","579","BW","Body Weight","149.2","g","149.2","149.2","g","","14","2018-10-22","14"
"S-00001","BW","S-00001-351","580","580","BW","Body Weight","153.7","g","153.7","153.7","g","","15","2018-10-23","15"
"S-00001","BW","S-00001-351","581","581","BW","Body Weight","154.1","g","154.1","154.1","g","","16","2018-10-24","16"
"S-00001","BW","S-00001-351","582","582","BW","Body Weight","152.8","g","152.8","152.8","g","","17","2018-10-25","17"
"S-00001","BW","S-00001-351","583","583","BW","Body Weight","160.0","g","160.0","160","g","","18","2018-10-26","18"
"S-00001","BW","S-00001-351","584","584","BW","Body Weight","163.3","g","163.3","163.3","g","","19","2018-10-27","19"
"S-00001","BW","S-00001-351","585","585","BW","Body Weight","164.5","g","164.5","164.5","g","","20","2018-10-28","20"
"S-00001","BW","S-00001-351","586","586","BW","Body Weight","164.1","g","164.1","164.1","g","","21","2018-10-29","21"
"S-00001","BW","S-00001-351","587","587","BW","Body Weight","169.1","g","169.1","169.1","g","","22","2018-10-30","22"
"S-00001","BW","S-00001-351","588","588","BW","Body Weight","170.4","g","170.4","170.4","g","","23","2018-10-31","23"
"S-00001","BW","S-00001-351","589","589","BW","Body Weight","171.4","g","171.4","171.4","g","","24","2018-11-01","24"
"S-00001","BW","S-00001-351","590","590","BW","Body Weight","171.2","g","171.2","171.2","g","","25","2018-11-02","25"
"S-00001","BW","S-00001-351","591","591","BW","Body Weight","176.2","g","176.2","176.2","g","","26","2018-11-03","26"
"S-00001","BW","S-00001-351","592","592","BW","Body Weight","179.5","g","179.5","179.5","g","","27","2018-11-04","27"
"S-00001","BW","S-00001-351","593","593","BW","Body Weight","177.9","g","177.9","177.9","g","","28","2018-11-05","28"
"S-00001","BW","S-00001-351","594","594","BW","Body Weight","176.8","g","176.8","176.8","g","","29","2018-11-06","29"
"S-00001","BW","S-00001-351","595","595","BW","Body Weight","179.7","g","179.7","179.7","g","","30","2018-11-07","30"
"S-00001","BW","S-00001-351","596","596","BW","Body Weight","183.4","g","183.4","183.4","g","","31","2018-11-08","31"
"S-00001","BW","S-00001-351","597","597","BW","Body Weight","187.2","g","187.2","187.2","g","","32","2018-11-09","32"
"S-00001","BW","S-00001-351","598","598","BW","Body Weight","185.5","g","185.5","185.5","g","","33","2018-11-10","33"
"S-00001","BW","S-00001-351","599","599","BW","Body Weight","193.0","g","193.0","193","g","","34","2018-11-11","34"
"S-00001","BW","S-00001-351","600","600","BW","Body Weight","193.4","g","193.4","193.4","g","","35","2018-11-12","35"
"S-00001","BW","S-00001-351","601","601","BW","Body Weight","195.3","g","195.3","195.3","g","","36","2018-11-13","36"
"S-00001","BW","S-00001-351","602","602","BW","Body Weight","191.1","g","191.1","191.1","g","","37","2018-11-14","37"
"S-00001","BW","S-00001-351","603","603","BW","Body Weight","199.5","g","199.5","199.5","g","","38","2018-11-15","38"
"S-00001","BW","S-00001-351","604","604","BW","Body Weight","197.8","g","197.8","197.8","g","","39","2018-11-16","39"
"S-00001","BW","S-00001-351","605","605","BW","Body Weight","197.2","g","197.2","197.2","g","","40","2018-11-17","40"
"S-00001","BW","S-00001-351","606","606","BW","Body Weight","199.8","g","199.8","199.8","g","","41","2018-11-18","41"
"S-00001","BW","S-00001-351","607","607","BW","Body Weight","201.0","g","201.0","201","g","","42","2018-11-19","42"
"S-00001","BW","S-00001-351","608","608","BW","Body Weight","204.9","g","204.9","204.9","g","","43","2018-11-20","43"
"S-00001","BW","S-00001-351","609","609","BW","Body Weight","203.2","g","203.2","203.2","g","","44","2018-11-21","44"
"S-00001","BW","S-00001-351","610","610","BW","Body Weight","205.6","g","205.6","205.6","g","","45","2018-11-22","45"
"S-00001","BW","S-00001-351","611","611","TERMBW","Terminal Body Weight","205.4","g","205.4","205.4","g","","46","2018-11-23","46"
"S-00001","BW","S-00001-352","612","612","BW","Body Weight","136.5","g","136.5","136.5","g","","-1","2018-10-08","-1"
"S-00001","BW","S-00001-352","613","613","BW","Body Weight","140.9","g","140.9","140.9","g","","1","2018-10-09","1"
"S-00001","BW","S-00001-352","614","614","BW","Body Weight","141.4","g","141.4","141.4","g","","2","2018-10-10","2"
"S-00001","BW","S-00001-352","615","615","BW","Body Weight","144.9","g","144.9","144.9","g","","3","2018-10-11","3"
"S-00001","BW","S-00001-352","616","616","BW","Body Weight","149.1","g","149.1","149.1","g","","4","2018-10-12","4"
"S-00001","BW","S-00001-352","617","617","BW","Body Weight","152.2","g","152.2","152.2","g","","5","2018-10-13","5"
"S-00001","BW","S-00001-352","618","618","BW","Body Weight","154.6","g","154.6","154.6","g","","6","2018-10-14","6"
"S-00001","BW","S-00001-352","619","619","BW","Body Weight","158.2","g","158.2","158.2","g","","7","2018-10-15","7"
"S-00001","BW","S-00001-352","620","620","BW","Body Weight","163.9","g","163.9","163.9","g","","8","2018-10-16","8"
"S-00001","BW","S-00001-352","621","621","BW","Body Weight","165.4","g","165.4","165.4","g","","9","2018-10-17","9"
"S-00001","BW","S-00001-352","622","622","BW","Body Weight","168.9","g","168.9","168.9","g","","10","2018-10-18","10"
"S-00001","BW","S-00001-352","623","623","BW","Body Weight","169.3","g","169.3","169.3","g","","11","2018-10-19","11"
"S-00001","BW","S-00001-352","624","624","BW","Body Weight","172.5","g","172.5","172.5","g","","12","2018-10-20","12"
"S-00001","BW","S-00001-352","625","625","BW","Body Weight","179.1","g","179.1","179.1","g","","13","2018-10-21","13"
"S-00001","BW","S-00001-352","626","626","BW","Body Weight","179.8","g","179.8","179.8","g","","14","2018-10-22","14"
"S-00001","BW","S-00001-352","627","627","BW","Body Weight","182.4","g","182.4","182.4","g","","15","2018-10-23","15"
"S-00001","BW","S-00001-352","628","628","BW","Body Weight","183.0","g","183.0","183","g","","16","2018-10-24","16"
"S-00001","BW","S-00001-352","629","629","BW","Body Weight","187.9","g","187.9","187.9","g","","17","2018-10-25","17"
"S-00001","BW","S-00001-352","630","630","BW","Body Weight","191.9","g","191.9","191.9","g","","18","2018-10-26","18"
"S-00001","BW","S-00001-352","631","631","BW","Body Weight","195.8","g","195.8","195.8","g","","19","2018-10-27","19"
"S-00001","BW","S-00001-352","632","632","BW","Body Weight","200.1","g","200.1","200.1","g","","20","2018-10-28","20"
"S-00001","BW","S-00001-352","633","633","BW","Body Weight","201.2","g","201.2","201.2","g","","21","2018-10-29","21"
"S-00001","BW","S-00001-352","634","634","BW","Body Weight","203.1","g","203.1","203.1","g","","22","2018-10-30","22"
"S-00001","BW","S-00001-352","635","635","BW","Body Weight","203.8","g","203.8","203.8","g","","23","2018-10-31","23"
"S-00001","BW","S-00001-352","636","636","BW","Body Weight","205.0","g","205.0","205","g","","24","2018-11-01","24"
"S-00001","BW","S-00001-352","637","637","BW","Body Weight","206.5","g","206.5","206.5","g","","25","2018-11-02","25"
"S-00001","BW","S-00001-352","638","638","BW","Body Weight","208.4","g","208.4","208.4","g","","26","2018-11-03","26"
"S-00001","BW","S-00001-352","639","639","BW","Body Weight","212.5","g","212.5","212.5","g","","27","2018-11-04","27"
"S-00001","BW","S-00001-352","640","640","BW","Body Weight","211.1","g","211.1","211.1","g","","28","2018-11-05","28"
"S-00001","BW","S-00001-352","641","641","BW","Body Weight","209.6","g","209.6","209.6","g","","29","2018-11-06","29"
"S-00001","BW","S-00001-352","642","642","BW","Body Weight","211.5","g","211.5","211.5","g","","30","2018-11-07","30"
"S-00001","BW","S-00001-352","643","643","BW","Body Weight","216.9","g","216.9","216.9","g","","31","2018-11-08","31"
"S-00001","BW","S-00001-352","644","644","BW","Body Weight","219.7","g","219.7","219.7","g","","32","2018-11-09","32"
"S-00001","BW","S-00001-352","645","645","BW","Body Weight","219.3","g","219.3","219.3","g","","33","2018-11-10","33"
"S-00001","BW","S-00001-352","646","646","BW","Body Weight","223.7","g","223.7","223.7","g","","34","2018-11-11","34"
"S-00001","BW","S-00001-352","647","647","BW","Body Weight","220.4","g","220.4","220.4","g","","35","2018-11-12","35"
"S-00001","BW","S-00001-352","648","648","BW","Body Weight","228.1","g","228.1","228.1","g","","36","2018-11-13","36"
"S-00001","BW","S-00001-352","649","649","BW","Body Weight","227.8","g","227.8","227.8","g","","37","2018-11-14","37"
"S-00001","BW","S-00001-352","650","650","BW","Body Weight","232.8","g","232.8","232.8","g","","38","2018-11-15","38"
"S-00001","BW","S-00001-352","651","651","BW","Body Weight","231.6","g","231.6","231.6","g","","39","2018-11-16","39"
"S-00001","BW","S-00001-352","652","652","BW","Body Weight","230.6","g","230.6","230.6","g","","40","2018-11-17","40"
"S-00001","BW","S-00001-352","653","653","BW","Body Weight","236.7","g","236.7","236.7","g","","41","2018-11-18","41"
"S-00001","BW","S-00001-352","654","654","BW","Body Weight","234.7","g","234.7","234.7","g","","42","2018-11-19","42"
"S-00001","BW","S-00001-352","655","655","BW","Body Weight","239.5","g","239.5","239.5","g","","43","2018-11-20","43"
"S-00001","BW","S-00001-352","656","656","BW","Body Weight","237.8","g","237.8","237.8","g","","44","2018-11-21","44"
"S-00001","BW","S-00001-352","657","657","BW","Body Weight","246.3","g","246.3","246.3","g","","45","2018-11-22","45"
"S-00001","BW","S-00001-352","658","658","TERMBW","Terminal Body Weight","245.4","g","245.4","245.4","g","","46","2018-11-23","46"
"S-00001","BW","S-00001-353","659","659","BW","Body Weight","131.5","g","131.5","131.5","g","","-1","2018-10-08","-1"
"S-00001","BW","S-00001-353","660","660","BW","Body Weight","136.1","g","136.1","136.1","g","","1","2018-10-09","1"
"S-00001","BW","S-00001-353","661","661","BW","Body Weight","138.9","g","138.9","138.9","g","","2","2018-10-10","2"
"S-00001","BW","S-00001-353","662","662","BW","Body Weight","141.5","g","141.5","141.5","g","","3","2018-10-11","3"
"S-00001","BW","S-00001-353","663","663","BW","Body Weight","145.6","g","145.6","145.6","g","","4","2018-10-12","4"
"S-00001","BW","S-00001-353","664","664","BW","Body Weight","149.4","g","149.4","149.4","g","","5","2018-10-13","5"
"S-00001","BW","S-00001-353","665","665","BW","Body Weight","150.7","g","150.7","150.7","g","","6","2018-10-14","6"
"S-00001","BW","S-00001-353","666","666","BW","Body Weight","154.9","g","154.9","154.9","g","","7","2018-10-15","7"
"S-00001","BW","S-00001-353","667","667","BW","Body Weight","162.4","g","162.4","162.4","g","","8","2018-10-16","8"
"S-00001","BW","S-00001-353","668","668","BW","Body Weight","164.7","g","164.7","164.7","g","","9","2018-10-17","9"
"S-00001","BW","S-00001-353","669","669","BW","Body Weight","169.5","g","169.5","169.5","g","","10","2018-10-18","10"
"S-00001","BW","S-00001-353","670","670","BW","Body Weight","166.9","g","166.9","166.9","g","","11","2018-10-19","11"
"S-00001","BW","S-00001-353","671","671","BW","Body Weight","171.3","g","171.3","171.3","g","","12","2018-10-20","12"
"S-00001","BW","S-00001-353","672","672","BW","Body Weight","177.0","g","177.0","177","g","","13","2018-10-21","13"
"S-00001","BW","S-00001-353","673","673","BW","Body Weight","179.5","g","179.5","179.5","g","","14","2018-10-22","14"
"S-00001","BW","S-00001-353","674","674","BW","Body Weight","181.2","g","181.2","181.2","g","","15","2018-10-23","15"
"S-00001","BW","S-00001-353","675","675","BW","Body Weight","184.6","g","184.6","184.6","g","","16","2018-10-24","16"
"S-00001","BW","S-00001-353","676","676","BW","Body Weight","187.3","g","187.3","187.3","g","","17","2018-10-25","17"
"S-00001","BW","S-00001-353","677","677","BW","Body Weight","192.9","g","192.9","192.9","g","","18","2018-10-26","18"
"S-00001","BW","S-00001-353","678","678","BW","Body Weight","195.2","g","195.2","195.2","g","","19","2018-10-27","19"
"S-00001","BW","S-00001-353","679","679","BW","Body Weight","197.6","g","197.6","197.6","g","","20","2018-10-28","20"
"S-00001","BW","S-00001-353","680","680","BW","Body Weight","199.5","g","199.5","199.5","g","","21","2018-10-29","21"
"S-00001","BW","S-00001-353","681","681","BW","Body Weight","202.7","g","202.7","202.7","g","","22","2018-10-30","22"
"S-00001","BW","S-00001-353","682","682","BW","Body Weight","203.3","g","203.3","203.3","g","","23","2018-10-31","23"
"S-00001","BW","S-00001-353","683","683","BW","Body Weight","205.3","g","205.3","205.3","g","","24","2018-11-01","24"
"S-00001","BW","S-00001-353","684","684","BW","Body Weight","207.8","g","207.8","207.8","g","","25","2018-11-02","25"
"S-00001","BW","S-00001-353","685","685","BW","Body Weight","210.3","g","210.3","210.3","g","","26","2018-11-03","26"
"S-00001","BW","S-00001-353","686","686","BW","Body Weight","213.4","g","213.4","213.4","g","","27","2018-11-04","27"
"S-00001","BW","S-00001-353","687","687","BW","Body Weight","212.9","g","212.9","212.9","g","","28","2018-11-05","28"
"S-00001","BW","S-00001-353","688","688","BW","Body Weight","216.8","g","216.8","216.8","g","","29","2018-11-06","29"
"S-00001","BW","S-00001-353","689","689","BW","Body Weight","217.4","g","217.4","217.4","g","","30","2018-11-07","30"
"S-00001","BW","S-00001-353","690","690","BW","Body Weight","216.2","g","216.2","216.2","g","","31","2018-11-08","31"
"S-00001","BW","S-00001-353","691","691","BW","Body Weight","221.7","g","221.7","221.7","g","","32","2018-11-09","32"
"S-00001","BW","S-00001-353","692","692","BW","Body Weight","220.8","g","220.8","220.8","g","","33","2018-11-10","33"
"S-00001","BW","S-00001-353","693","693","BW","Body Weight","222.8","g","222.8","222.8","g","","34","2018-11-11","34"
"S-00001","BW","S-00001-353","694","694","BW","Body Weight","223.0","g","223.0","223","g","","35","2018-11-12","35"
"S-00001","BW","S-00001-353","695","695","BW","Body Weight","225.7","g","225.7","225.7","g","","36","2018-11-13","36"
"S-00001","BW","S-00001-353","696","696","BW","Body Weight","225.5","g","225.5","225.5","g","","37","2018-11-14","37"
"S-00001","BW","S-00001-353","697","697","BW","Body Weight","229.2","g","229.2","229.2","g","","38","2018-11-15","38"
"S-00001","BW","S-00001-353","698","698","BW","Body Weight","226.4","g","226.4","226.4","g","","39","2018-11-16","39"
"S-00001","BW","S-00001-353","699","699","BW","Body Weight","229.1","g","229.1","229.1","g","","40","2018-11-17","40"
"S-00001","BW","S-00001-353","700","700","BW","Body Weight","232.7","g","232.7","232.7","g","","41","2018-11-18","41"
"S-00001","BW","S-00001-353","701","701","BW","Body Weight","230.9","g","230.9","230.9","g","","42","2018-11-19","42"
"S-00001","BW","S-00001-353","702","702","BW","Body Weight","233.9","g","233.9","233.9","g","","43","2018-11-20","43"
"S-00001","BW","S-00001-353","703","703","BW","Body Weight","235.4","g","235.4","235.4","g","","44","2018-11-21","44"
"S-00001","BW","S-00001-353","704","704","BW","Body Weight","238.7","g","238.7","238.7","g","","45","2018-11-22","45"
"S-00001","BW","S-00001-353","705","705","TERMBW","Terminal Body Weight","237.8","g","237.8","237.8","g","","46","2018-11-23","46"
"S-00001","BW","S-00001-354","706","706","BW","Body Weight","126.7","g","126.7","126.7","g","","-1","2018-10-08","-1"
"S-00001","BW","S-00001-354","707","707","BW","Body Weight","131.3","g","131.3","131.3","g","","1","2018-10-09","1"
"S-00001","BW","S-00001-354","708","708","BW","Body Weight","131.0","g","131.0","131","g","","2","2018-10-10","2"
"S-00001","BW","S-00001-354","709","709","BW","Body Weight","133.7","g","133.7","133.7","g","","3","2018-10-11","3"
"S-00001","BW","S-00001-354","710","710","BW","Body Weight","136.4","g","136.4","136.4","g","","4","2018-10-12","4"
"S-00001","BW","S-00001-354","711","711","BW","Body Weight","138.2","g","138.2","138.2","g","","5","2018-10-13","5"
"S-00001","BW","S-00001-354","712","712","BW","Body Weight","141.0","g","141.0","141","g","","6","2018-10-14","6"
"S-00001","BW","S-00001-354","713","713","BW","Body Weight","143.7","g","143.7","143.7","g","","7","2018-10-15","7"
"S-00001","BW","S-00001-354","714","714","BW","Body Weight","147.0","g","147.0","147","g","","8","2018-10-16","8"
"S-00001","BW","S-00001-354","715","715","BW","Body Weight","149.3","g","149.3","149.3","g","","9","2018-10-17","9"
"S-00001","BW","S-00001-354","716","716","BW","Body Weight","151.5","g","151.5","151.5","g","","10","2018-10-18","10"
"S-00001","BW","S-00001-354","717","717","BW","Body Weight","154.2","g","154.2","154.2","g","","11","2018-10-19","11"
"S-00001","BW","S-00001-354","718","718","BW","Body Weight","157.4","g","157.4","157.4","g","","12","2018-10-20","12"
"S-00001","BW","S-00001-354","719","719","BW","Body Weight","158.1","g","158.1","158.1","g","","13","2018-10-21","13"
"S-00001","BW","S-00001-354","720","720","BW","Body Weight","158.5","g","158.5","158.5","g","","14","2018-10-22","14"
"S-00001","BW","S-00001-354","721","721","BW","Body Weight","163.2","g","163.2","163.2","g","","15","2018-10-23","15"
"S-00001","BW","S-00001-354","722","722","BW","Body Weight","164.7","g","164.7","164.7","g","","16","2018-10-24","16"
"S-00001","BW","S-00001-354","723","723","BW","Body Weight","165.6","g","165.6","165.6","g","","17","2018-10-25","17"
"S-00001","BW","S-00001-354","724","724","BW","Body Weight","170.4","g","170.4","170.4","g","","18","2018-10-26","18"
"S-00001","BW","S-00001-354","725","725","BW","Body Weight","171.3","g","171.3","171.3","g","","19","2018-10-27","19"
"S-00001","BW","S-00001-354","726","726","BW","Body Weight","171.9","g","171.9","171.9","g","","20","2018-10-28","20"
"S-00001","BW","S-00001-354","727","727","BW","Body Weight","175.5","g","175.5","175.5","g","","21","2018-10-29","21"
"S-00001","BW","S-00001-354","728","728","BW","Body Weight","176.9","g","176.9","176.9","g","","22","2018-10-30","22"
"S-00001","BW","S-00001-354","729","729","BW","Body Weight","179.5","g","179.5","179.5","g","","23","2018-10-31","23"
"S-00001","BW","S-00001-354","730","730","BW","Body Weight","181.7","g","181.7","181.7","g","","24","2018-11-01","24"
"S-00001","BW","S-00001-354","731","731","BW","Body Weight","182.5","g","182.5","182.5","g","","25","2018-11-02","25"
"S-00001","BW","S-00001-354","732","732","BW","Body Weight","182.8","g","182.8","182.8","g","","26","2018-11-03","26"
"S-00001","BW","S-00001-354","733","733","BW","Body Weight","185.8","g","185.8","185.8","g","","27","2018-11-04","27"
"S-00001","BW","S-00001-354","734","734","BW","Body Weight","187.5","g","187.5","187.5","g","","28","2018-11-05","28"
"S-00001","BW","S-00001-354","735","735","BW","Body Weight","186.0","g","186.0","186","g","","29","2018-11-06","29"
"S-00001","BW","S-00001-354","736","736","BW","Body Weight","189.0","g","189.0","189","g","","30","2018-11-07","30"
"S-00001","BW","S-00001-354","737","737","BW","Body Weight","189.9","g","189.9","189.9","g","","31","2018-11-08","31"
"S-00001","BW","S-00001-354","738","738","BW","Body Weight","193.9","g","193.9","193.9","g","","32","2018-11-09","32"
"S-00001","BW","S-00001-354","739","739","BW","Body Weight","193.7","g","193.7","193.7","g","","33","2018-11-10","33"
"S-00001","BW","S-00001-354","740","740","BW","Body Weight","196.5","g","196.5","196.5","g","","34","2018-11-11","34"
"S-00001","BW","S-00001-354","741","741","BW","Body Weight","194.8","g","194.8","194.8","g","","35","2018-11-12","35"
"S-00001","BW","S-00001-354","742","742","BW","Body Weight","199.8","g","199.8","199.8","g","","36","2018-11-13","36"
"S-00001","BW","S-00001-354","743","743","BW","Body Weight","199.2","g","199.2","199.2","g","","37","2018-11-14","37"
"S-00001","BW","S-00001-354","744","744","BW","Body Weight","202.6","g","202.6","202.6","g","","38","2018-11-15","38"
"S-00001","BW","S-00001-354","745","745","BW","Body Weight","199.8","g","199.8","199.8","g","","39","2018-11-16","39"
"S-00001","BW","S-00001-354","746","746","BW","Body Weight","200.9","g","200.9","200.9","g","","40","2018-11-17","40"
"S-00001","BW","S-00001-354","747","747","BW","Body Weight","202.3","g","202.3","202.3","g","","41","2018-11-18","41"
"S-00001","BW","S-00001-354","748","748","BW","Body Weight","203.4","g","203.4","203.4","g","","42","2018-11-19","42"
"S-00001","BW","S-00001-354","749","749","BW","Body Weight","205.8","g","205.8","205.8","g","","43","2018-11-20","43"
"S-00001","BW","S-00001-354","750","750","BW","Body Weight","204.0","g","204.0","204","g","","44","2018-11-21","44"
"S-00001","BW","S-00001-354","751","751","BW","Body Weight","206.2","g","206.2","206.2","g","","45","2018-11-22","45"
"S-00001","BW","S-00001-354","752","752","TERMBW","Terminal Body Weight","207.3","g","207.3","207.3","g","","46","2018-11-23","46"
"S-00001","BW","S-00001-355","753","753","BW","Body Weight","121.1","g","121.1","121.1","g","","-1","2018-10-08","-1"
"S-00001","BW","S-00001-355","754","754","BW","Body Weight","126.9","g","126.9","126.9","g","","1","2018-10-09","1"
"S-00001","BW","S-00001-355","755","755","BW","Body Weight","128.7","g","128.7","128.7","g","","2","2018-10-10","2"
"S-00001","BW","S-00001-355","756","756","BW","Body Weight","131.3","g","131.3","131.3","g","","3","2018-10-11","3"
"S-00001","BW","S-00001-355","757","757","BW","Body Weight","135.1","g","135.1","135.1","g","","4","2018-10-12","4"
"S-00001","BW","S-00001-355","758","758","BW","Body Weight","138.4","g","138.4","138.4","g","","5","2018-10-13","5"
"S-00001","BW","S-00001-355","759","759","BW","Body Weight","141.5","g","141.5","141.5","g","","6","2018-10-14","6"
"S-00001","BW","S-00001-355","760","760","BW","Body Weight","145.3","g","145.3","145.3","g","","7","2018-10-15","7"
"S-00001","BW","S-00001-355","761","761","BW","Body Weight","150.0","g","150.0","150","g","","8","2018-10-16","8"
"S-00001","BW","S-00001-355","762","762","BW","Body Weight","152.2","g","152.2","152.2","g","","9","2018-10-17","9"
"S-00001","BW","S-00001-355","763","763","BW","Body Weight","155.1","g","155.1","155.1","g","","10","2018-10-18","10"
"S-00001","BW","S-00001-355","764","764","BW","Body Weight","154.9","g","154.9","154.9","g","","11","2018-10-19","11"
"S-00001","BW","S-00001-355","765","765","BW","Body Weight","157.9","g","157.9","157.9","g","","12","2018-10-20","12"
"S-00001","BW","S-00001-355","766","766","BW","Body Weight","162.4","g","162.4","162.4","g","","13","2018-10-21","13"
"S-00001","BW","S-00001-355","767","767","BW","Body Weight","164.6","g","164.6","164.6","g","","14","2018-10-22","14"
"S-00001","BW","S-00001-355","768","768","BW","Body Weight","167.5","g","167.5","167.5","g","","15","2018-10-23","15"
"S-00001","BW","S-00001-355","769","769","BW","Body Weight","167.8","g","167.8","167.8","g","","16","2018-10-24","16"
"S-00001","BW","S-00001-355","770","770","BW","Body Weight","171.2","g","171.2","171.2","g","","17","2018-10-25","17"
"S-00001","BW","S-00001-355","771","771","BW","Body Weight","174.2","g","174.2","174.2","g","","18","2018-10-26","18"
"S-00001","BW","S-00001-355","772","772","BW","Body Weight","177.6","g","177.6","177.6","g","","19","2018-10-27","19"
"S-00001","BW","S-00001-355","773","773","BW","Body Weight","179.6","g","179.6","179.6","g","","20","2018-10-28","20"
"S-00001","BW","S-00001-355","774","774","BW","Body Weight","180.7","g","180.7","180.7","g","","21","2018-10-29","21"
"S-00001","BW","S-00001-355","775","775","BW","Body Weight","181.8","g","181.8","181.8","g","","22","2018-10-30","22"
"S-00001","BW","S-00001-355","776","776","BW","Body Weight","185.2","g","185.2","185.2","g","","23","2018-10-31","23"
"S-00001","BW","S-00001-355","777","777","BW","Body Weight","188.5","g","188.5","188.5","g","","24","2018-11-01","24"
"S-00001","BW","S-00001-355","778","778","BW","Body Weight","189.0","g","189.0","189","g","","25","2018-11-02","25"
"S-00001","BW","S-00001-355","779","779","BW","Body Weight","190.3","g","190.3","190.3","g","","26","2018-11-03","26"
"S-00001","BW","S-00001-355","780","780","BW","Body Weight","194.3","g","194.3","194.3","g","","27","2018-11-04","27"
"S-00001","BW","S-00001-355","781","781","BW","Body Weight","193.9","g","193.9","193.9","g","","28","2018-11-05","28"
"S-00001","BW","S-00001-355","782","782","BW","Body Weight","193.2","g","193.2","193.2","g","","29","2018-11-06","29"
"S-00001","BW","S-00001-355","783","783","BW","Body Weight","195.5","g","195.5","195.5","g","","30","2018-11-07","30"
"S-00001","BW","S-00001-355","784","784","BW","Body Weight","196.9","g","196.9","196.9","g","","31","2018-11-08","31"
"S-00001","BW","S-00001-355","785","785","BW","Body Weight","201.4","g","201.4","201.4","g","","32","2018-11-09","32"
"S-00001","BW","S-00001-355","786","786","BW","Body Weight","202.2","g","202.2","202.2","g","","33","2018-11-10","33"
"S-00001","BW","S-00001-355","787","787","BW","Body Weight","205.2","g","205.2","205.2","g","","34","2018-11-11","34"
"S-00001","BW","S-00001-355","788","788","BW","Body Weight","203.9","g","203.9","203.9","g","","35","2018-11-12","35"
"S-00001","BW","S-00001-355","789","789","BW","Body Weight","206.9","g","206.9","206.9","g","","36","2018-11-13","36"
"S-00001","BW","S-00001-355","790","790","BW","Body Weight","207.6","g","207.6","207.6","g","","37","2018-11-14","37"
"S-00001","BW","S-00001-355","791","791","BW","Body Weight","211.9","g","211.9","211.9","g","","38","2018-11-15","38"
"S-00001","BW","S-00001-355","792","792","BW","Body Weight","209.1","g","209.1","209.1","g","","39","2018-11-16","39"
"S-00001","BW","S-00001-355","793","793","BW","Body Weight","211.7","g","211.7","211.7","g","","40","2018-11-17","40"
"S-00001","BW","S-00001-355","794","794","BW","Body Weight","214.7","g","214.7","214.7","g","","41","2018-11-18","41"
"S-00001","BW","S-00001-355","795","795","BW","Body Weight","212.8","g","212.8","212.8","g","","42","2018-11-19","42"
"S-00001","BW","S-00001-355","796","796","BW","Body Weight","214.9","g","214.9","214.9","g","","43","2018-11-20","43"
"S-00001","BW","S-00001-355","797","797","BW","Body Weight","213.0","g","213.0","213","g","","44","2018-11-21","44"
"S-00001","BW","S-00001-355","798","798","BW","Body Weight","222.1","g","222.1","222.1","g","","45","2018-11-22","45"
"S-00001","BW","S-00001-355","799","799","TERMBW","Terminal Body Weight","220.5","g","220.5","220.5","g","","46","2018-11-23","46"
"S-00001","BW","S-00001-356","800","800","BW","Body Weight","140.7","g","140.7","140.7","g","","-1","2018-10-08","-1"
"S-00001","BW","S-00001-356","801","801","BW","Body Weight","145.7","g","145.7","145.7","g","","1","2018-10-09","1"
"S-00001","BW","S-00001-356","802","802","BW","Body Weight","143.2","g","143.2","143.2","g","","2","2018-10-10","2"
"S-00001","BW","S-00001-356","803","803","BW","Body Weight","146.4","g","146.4","146.4","g","","3","2018-10-11","3"
"S-00001","BW","S-00001-356","804","804","BW","Body Weight","148.8","g","148.8","148.8","g","","4","2018-10-12","4"
"S-00001","BW","S-00001-356","805","805","BW","Body Weight","151.6","g","151.6","151.6","g","","5","2018-10-13","5"
"S-00001","BW","S-00001-356","806","806","BW","Body Weight","154.1","g","154.1","154.1","g","","6","2018-10-14","6"
"S-00001","BW","S-00001-356","807","807","BW","Body Weight","155.7","g","155.7","155.7","g","","7","2018-10-15","7"
"S-00001","BW","S-00001-356","808","808","BW","Body Weight","161.8","g","161.8","161.8","g","","8","2018-10-16","8"
"S-00001","BW","S-00001-356","809","809","BW","Body Weight","163.7","g","163.7","163.7","g","","9","2018-10-17","9"
"S-00001","BW","S-00001-356","810","810","BW","Body Weight","168.1","g","168.1","168.1","g","","10","2018-10-18","10"
"S-00001","BW","S-00001-356","811","811","BW","Body Weight","170.2","g","170.2","170.2","g","","11","2018-10-19","11"
"S-00001","BW","S-00001-356","812","812","BW","Body Weight","174.8","g","174.8","174.8","g","","12","2018-10-20","12"
"S-00001","BW","S-00001-356","813","813","BW","Body Weight","176.7","g","176.7","176.7","g","","13","2018-10-21","13"
"S-00001","BW","S-00001-356","814","814","BW","Body Weight","179.2","g","179.2","179.2","g","","14","2018-10-22","14"
"S-00001","BW","S-00001-356","815","815","BW","Body Weight","185.0","g","185.0","185","g","","15","2018-10-23","15"
"S-00001","BW","S-00001-356","816","816","BW","Body Weight","184.4","g","184.4","184.4","g","","16","2018-10-24","16"
"S-00001","BW","S-00001-356","817","817","BW","Body Weight","188.5","g","188.5","188.5","g","","17","2018-10-25","17"
"S-00001","BW","S-00001-356","818","818","BW","Body Weight","189.3","g","189.3","189.3","g","","18","2018-10-26","18"
"S-00001","BW","S-00001-356","819","819","BW","Body Weight","192.9","g","192.9","192.9","g","","19","2018-10-27","19"
"S-00001","BW","S-00001-356","820","820","BW","Body Weight","194.1","g","194.1","194.1","g","","20","2018-10-28","20"
"S-00001","BW","S-00001-356","821","821","BW","Body Weight","196.6","g","196.6","196.6","g","","21","2018-10-29","21"
"S-00001","BW","S-00001-356","822","822","BW","Body Weight","198.3","g","198.3","198.3","g","","22","2018-10-30","22"
"S-00001","BW","S-00001-356","823","823","BW","Body Weight","199.0","g","199.0","199","g","","23","2018-10-31","23"
"S-00001","BW","S-00001-356","824","824","BW","Body Weight","201.8","g","201.8","201.8","g","","24","2018-11-01","24"
"S-00001","BW","S-00001-356","825","825","BW","Body Weight","202.5","g","202.5","202.5","g","","25","2018-11-02","25"
"S-00001","BW","S-00001-356","826","826","BW","Body Weight","207.7","g","207.7","207.7","g","","26","2018-11-03","26"
"S-00001","BW","S-00001-356","827","827","BW","Body Weight","209.3","g","209.3","209.3","g","","27","2018-11-04","27"
"S-00001","BW","S-00001-356","828","828","BW","Body Weight","213.6","g","213.6","213.6","g","","28","2018-11-05","28"
"S-00001","BW","S-00001-356","829","829","BW","Body Weight","211.7","g","211.7","211.7","g","","29","2018-11-06","29"
"S-00001","BW","S-00001-356","830","830","BW","Body Weight","213.1","g","213.1","213.1","g","","30","2018-11-07","30"
"S-00001","BW","S-00001-356","831","831","BW","Body Weight","216.6","g","216.6","216.6","g","","31","2018-11-08","31"
"S-00001","BW","S-00001-356","832","832","BW","Body Weight","216.4","g","216.4","216.4","g","","32","2018-11-09","32"
"S-00001","BW","S-00001-356","833","833","BW","Body Weight","219.5","g","219.5","219.5","g","","33","2018-11-10","33"
"S-00001","BW","S-00001-356","834","834","BW","Body Weight","223.3","g","223.3","223.3","g","","34","2018-11-11","34"
"S-00001","BW","S-00001-356","835","835","BW","Body Weight","222.7","g","222.7","222.7","g","","35","2018-11-12","35"
"S-00001","BW","S-00001-356","836","836","BW","Body Weight","227.4","g","227.4","227.4","g","","36","2018-11-13","36"
"S-00001","BW","S-00001-356","837","837","BW","Body Weight","225.4","g","225.4","225.4","g","","37","2018-11-14","37"
"S-00001","BW","S-00001-356","838","838","BW","Body Weight","228.2","g","228.2","228.2","g","","38","2018-11-15","38"
"S-00001","BW","S-00001-356","839","839","BW","Body Weight","229.2","g","229.2","229.2","g","","39","2018-11-16","39"
"S-00001","BW","S-00001-356","840","840","BW","Body Weight","227.9","g","227.9","227.9","g","","40","2018-11-17","40"
"S-00001","BW","S-00001-356","841","841","BW","Body Weight","234.2","g","234.2","234.2","g","","41","2018-11-18","41"
"S-00001","BW","S-00001-356","842","842","BW","Body Weight","232.0","g","232.0","232","g","","42","2018-11-19","42"
"S-00001","BW","S-00001-356","843","843","BW","Body Weight","235.5","g","235.5","235.5","g","","43","2018-11-20","43"
"S-00001","BW","S-00001-356","844","844","BW","Body Weight","233.5","g","233.5","233.5","g","","44","2018-11-21","44"
"S-00001","BW","S-00001-356","845","845","BW","Body Weight","237.0","g","237.0","237","g","","45","2018-11-22","45"
"S-00001","BW","S-00001-356","846","846","TERMBW","Terminal Body Weight","236.6","g","236.6","236.6","g","","46","2018-11-23","46"
"S-00001","BW","S-00001-451","847","847","BW","Body Weight","130.4","g","130.4","130.4","g","","-1","2018-10-08","-1"
"S-00001","BW","S-00001-451","848","848","BW","Body Weight","134.2","g","134.2","134.2","g","","1","2018-10-09","1"
"S-00001","BW","S-00001-451","849","849","BW","Body Weight","132.3","g","132.3","132.3","g","","2","2018-10-10","2"
"S-00001","BW","S-00001-451","850","850","BW","Body Weight","135.7","g","135.7","135.7","g","","3","2018-10-11","3"
"S-00001","BW","S-00001-451","851","851","BW","Body Weight","136.9","g","136.9","136.9","g","","4","2018-10-12","4"
"S-00001","BW","S-00001-451","852","852","BW","Body Weight","139.1","g","139.1","139.1","g","","5","2018-10-13","5"
"S-00001","BW","S-00001-451","853","853","BW","Body Weight","141.9","g","141.9","141.9","g","","6","2018-10-14","6"
"S-00001","BW","S-00001-451","854","854","BW","Body Weight","145.3","g","145.3","145.3","g","","7","2018-10-15","7"
"S-00001","BW","S-00001-451","855","855","BW","Body Weight","151.1","g","151.1","151.1","g","","8","2018-10-16","8"
"S-00001","BW","S-00001-451","856","856","BW","Body Weight","153.9","g","153.9","153.9","g","","9","2018-10-17","9"
"S-00001","BW","S-00001-451","857","857","BW","Body Weight","153.5","g","153.5","153.5","g","","10","2018-10-18","10"
"S-00001","BW","S-00001-451","858","858","BW","Body Weight","155.3","g","155.3","155.3","g","","11","2018-10-19","11"
"S-00001","BW","S-00001-451","859","859","BW","Body Weight","158.1","g","158.1","158.1","g","","12","2018-10-20","12"
"S-00001","BW","S-00001-451","860","860","BW","Body Weight","161.0","g","161.0","161","g","","13","2018-10-21","13"
"S-00001","BW","S-00001-451","861","861","BW","Body Weight","160.4","g","160.4","160.4","g","","14","2018-10-22","14"
"S-00001","BW","S-00001-451","862","862","BW","Body Weight","163.8","g","163.8","163.8","g","","15","2018-10-23","15"
"S-00001","BW","S-00001-451","863","863","BW","Body Weight","166.2","g","166.2","166.2","g","","16","2018-10-24","16"
"S-00001","BW","S-00001-451","864","864","BW","Body Weight","168.9","g","168.9","168.9","g","","17","2018-10-25","17"
"S-00001","BW","S-00001-451","865","865","BW","Body Weight","170.8","g","170.8","170.8","g","","18","2018-10-26","18"
"S-00001","BW","S-00001-451","866","866","BW","Body Weight","173.1","g","173.1","173.1","g","","19","2018-10-27","19"
"S-00001","BW","S-00001-451","867","867","BW","Body Weight","176.3","g","176.3","176.3","g","","20","2018-10-28","20"
"S-00001","BW","S-00001-451","868","868","BW","Body Weight","179.3","g","179.3","179.3","g","","21","2018-10-29","21"
"S-00001","BW","S-00001-451","869","869","BW","Body Weight","180.0","g","180.0","180","g","","22","2018-10-30","22"
"S-00001","BW","S-00001-451","870","870","BW","Body Weight","183.8","g","183.8","183.8","g","","23","2018-10-31","23"
"S-00001","BW","S-00001-451","871","871","BW","Body Weight","182.9","g","182.9","182.9","g","","24","2018-11-01","24"
"S-00001","BW","S-00001-451","872","872","BW","Body Weight","185.8","g","185.8","185.8","g","","25","2018-11-02","25"
"S-00001","BW","S-00001-451","873","873","BW","Body Weight","184.6","g","184.6","184.6","g","","26","2018-11-03","26"
"S-00001","BW","S-00001-451","874","874","BW","Body Weight","188.1","g","188.1","188.1","g","","27","2018-11-04","27"
"S-00001","BW","S-00001-451","875","875","BW","Body Weight","190.9","g","190.9","190.9","g","","28","2018-11-05","28"
"S-00001","BW","S-00001-451","876","876","BW","Body Weight","191.7","g","191.7","191.7","g","","29","2018-11-06","29"
"S-00001","BW","S-00001-451","877","877","BW","Body Weight","189.3","g","189.3","189.3","g","","30","2018-11-07","30"
"S-00001","BW","S-00001-451","878","878","BW","Body Weight","195.4","g","195.4","195.4","g","","31","2018-11-08","31"
"S-00001","BW","S-00001-451","879","879","TERMBW","Terminal Body Weight","196.6","g","196.6","196.6","g","","32","2018-11-09","32"
"S-00001","BW","S-00001-452","880","880","BW","Body Weight","129.1","g","129.1","129.1","g","","-1","2018-10-08","-1"
"S-00001","BW","S-00001-452","881","881","BW","Body Weight","129.9","g","129.9","129.9","g","","1","2018-10-09","1"
"S-00001","BW","S-00001-452","882","882","BW","Body Weight","134.9","g","134.9","134.9","g","","2","2018-10-10","2"
"S-00001","BW","S-00001-452","883","883","BW","Body Weight","136.9","g","136.9","136.9","g","","3","2018-10-11","3"
"S-00001","BW","S-00001-452","884","884","BW","Body Weight","140.6","g","140.6","140.6","g","","4","2018-10-12","4"
"S-00001","BW","S-00001-452","885","885","BW","Body Weight","141.8","g","141.8","141.8","g","","5","2018-10-13","5"
"S-00001","BW","S-00001-452","886","886","BW","Body Weight","143.2","g","143.2","143.2","g","","6","2018-10-14","6"
"S-00001","BW","S-00001-452","887","887","BW","Body Weight","148.7","g","148.7","148.7","g","","7","2018-10-15","7"
"S-00001","BW","S-00001-452","888","888","BW","Body Weight","153.9","g","153.9","153.9","g","","8","2018-10-16","8"
"S-00001","BW","S-00001-452","889","889","BW","Body Weight","157.3","g","157.3","157.3","g","","9","2018-10-17","9"
"S-00001","BW","S-00001-452","890","890","BW","Body Weight","160.9","g","160.9","160.9","g","","10","2018-10-18","10"
"S-00001","BW","S-00001-452","891","891","BW","Body Weight","162.7","g","162.7","162.7","g","","11","2018-10-19","11"
"S-00001","BW","S-00001-452","892","892","BW","Body Weight","167.1","g","167.1","167.1","g","","12","2018-10-20","12"
"S-00001","BW","S-00001-452","893","893","BW","Body Weight","168.9","g","168.9","168.9","g","","13","2018-10-21","13"
"S-00001","BW","S-00001-452","894","894","BW","Body Weight","167.4","g","167.4","167.4","g","","14","2018-10-22","14"
"S-00001","BW","S-00001-452","895","895","BW","Body Weight","171.0","g","171.0","171","g","","15","2018-10-23","15"
"S-00001","BW","S-00001-452","896","896","BW","Body Weight","176.4","g","176.4","176.4","g","","16","2018-10-24","16"
"S-00001","BW","S-00001-452","897","897","BW","Body Weight","176.2","g","176.2","176.2","g","","17","2018-10-25","17"
"S-00001","BW","S-00001-452","898","898","BW","Body Weight","179.4","g","179.4","179.4","g","","18","2018-10-26","18"
"S-00001","BW","S-00001-452","899","899","BW","Body Weight","183.6","g","183.6","183.6","g","","19","2018-10-27","19"
"S-00001","BW","S-00001-452","900","900","BW","Body Weight","184.5","g","184.5","184.5","g","","20","2018-10-28","20"
"S-00001","BW","S-00001-452","901","901","BW","Body Weight","186.5","g","186.5","186.5","g","","21","2018-10-29","21"
"S-00001","BW","S-00001-452","902","902","BW","Body Weight","188.4","g","188.4","188.4","g","","22","2018-10-30","22"
"S-00001","BW","S-00001-452","903","903","BW","Body Weight","189.5","g","189.5","189.5","g","","23","2018-10-31","23"
"S-00001","BW","S-00001-452","904","904","BW","Body Weight","194.8","g","194.8","194.8","g","","24","2018-11-01","24"
"S-00001","BW","S-00001-452","905","905","BW","Body Weight","198.2","g","198.2","198.2","g","","25","2018-11-02","25"
"S-00001","BW","S-00001-452","906","906","BW","Body Weight","197.7","g","197.7","197.7","g","","26","2018-11-03","26"
"S-00001","BW","S-00001-452","907","907","BW","Body Weight","200.1","g","200.1","200.1","g","","27","2018-11-04","27"
"S-00001","BW","S-00001-452","908","908","BW","Body Weight","200.7","g","200.7","200.7","g","","28","2018-11-05","28"
"S-00001","BW","S-00001-452","909","909","BW","Body Weight","204.8","g","204.8","204.8","g","","29","2018-11-06","29"
"S-00001","BW","S-00001-452","910","910","BW","Body Weight","204.9","g","204.9","204.9","g","","30","2018-11-07","30"
"S-00001","BW","S-00001-452","911","911","BW","Body Weight","208.7","g","208.7","208.7","g","","31","2018-11-08","31"
"S-00001","BW","S-00001-452","912","912","TERMBW","Terminal Body Weight","212.5","g","212.5","212.5","g","","32","2018-11-09","32"
"S-00001","BW","S-00001-453","913","913","BW","Body Weight","124.6","g","124.6","124.6","g","","-1","2018-10-08","-1"
"S-00001","BW","S-00001-453","914","914","BW","Body Weight","128.3","g","128.3","128.3","g","","1","2018-10-09","1"
"S-00001","BW","S-00001-453","915","915","BW","Body Weight","129.6","g","129.6","129.6","g","","2","2018-10-10","2"
"S-00001","BW","S-00001-453","916","916","BW","Body Weight","129.5","g","129.5","129.5","g","","3","2018-10-11","3"
"S-00001","BW","S-00001-453","917","917","BW","Body Weight","132.9","g","132.9","132.9","g","","4","2018-10-12","4"
"S-00001","BW","S-00001-453","918","918","BW","Body Weight","137.7","g","137.7","137.7","g","","5","2018-10-13","5"
"S-00001","BW","S-00001-453","919","919","BW","Body Weight","138.7","g","138.7","138.7","g","","6","2018-10-14","6"
"S-00001","BW","S-00001-453","920","920","BW","Body Weight","142.8","g","142.8","142.8","g","","7","2018-10-15","7"
"S-00001","BW","S-00001-453","921","921","BW","Body Weight","147.1","g","147.1","147.1","g","","8","2018-10-16","8"
"S-00001","BW","S-00001-453","922","922","BW","Body Weight","150.8","g","150.8","150.8","g","","9","2018-10-17","9"
"S-00001","BW","S-00001-453","923","923","BW","Body Weight","153.6","g","153.6","153.6","g","","10","2018-10-18","10"
"S-00001","BW","S-00001-453","924","924","BW","Body Weight","154.0","g","154.0","154","g","","11","2018-10-19","11"
"S-00001","BW","S-00001-453","925","925","BW","Body Weight","158.8","g","158.8","158.8","g","","12","2018-10-20","12"
"S-00001","BW","S-00001-453","926","926","BW","Body Weight","160.6","g","160.6","160.6","g","","13","2018-10-21","13"
"S-00001","BW","S-00001-453","927","927","BW","Body Weight","166.5","g","166.5","166.5","g","","14","2018-10-22","14"
"S-00001","BW","S-00001-453","928","928","BW","Body Weight","168.3","g","168.3","168.3","g","","15","2018-10-23","15"
"S-00001","BW","S-00001-453","929","929","BW","Body Weight","171.5","g","171.5","171.5","g","","16","2018-10-24","16"
"S-00001","BW","S-00001-453","930","930","BW","Body Weight","174.5","g","174.5","174.5","g","","17","2018-10-25","17"
"S-00001","BW","S-00001-453","931","931","BW","Body Weight","178.4","g","178.4","178.4","g","","18","2018-10-26","18"
"S-00001","BW","S-00001-453","932","932","BW","Body Weight","181.1","g","181.1","181.1","g","","19","2018-10-27","19"
"S-00001","BW","S-00001-453","933","933","BW","Body Weight","183.5","g","183.5","183.5","g","","20","2018-10-28","20"
"S-00001","BW","S-00001-453","934","934","BW","Body Weight","186.0","g","186.0","186","g","","21","2018-10-29","21"
"S-00001","BW","S-00001-453","935","935","BW","Body Weight","188.5","g","188.5","188.5","g","","22","2018-10-30","22"
"S-00001","BW","S-00001-453","936","936","BW","Body Weight","193.6","g","193.6","193.6","g","","23","2018-10-31","23"
"S-00001","BW","S-00001-453","937","937","BW","Body Weight","195.9","g","195.9","195.9","g","","24","2018-11-01","24"
"S-00001","BW","S-00001-453","938","938","BW","Body Weight","195.5","g","195.5","195.5","g","","25","2018-11-02","25"
"S-00001","BW","S-00001-453","939","939","BW","Body Weight","197.5","g","197.5","197.5","g","","26","2018-11-03","26"
"S-00001","BW","S-00001-453","940","940","BW","Body Weight","199.5","g","199.5","199.5","g","","27","2018-11-04","27"
"S-00001","BW","S-00001-453","941","941","BW","Body Weight","202.9","g","202.9","202.9","g","","28","2018-11-05","28"
"S-00001","BW","S-00001-453","942","942","BW","Body Weight","202.3","g","202.3","202.3","g","","29","2018-11-06","29"
"S-00001","BW","S-00001-453","943","943","BW","Body Weight","207.4","g","207.4","207.4","g","","30","2018-11-07","30"
"S-00001","BW","S-00001-453","944","944","BW","Body Weight","208.8","g","208.8","208.8","g","","31","2018-11-08","31"
"S-00001","BW","S-00001-453","945","945","TERMBW","Terminal Body Weight","212.8","g","212.8","212.8","g","","32","2018-11-09","32"
"S-00001","BW","S-00001-454","946","946","BW","Body Weight","141.8","g","141.8","141.8","g","","-1","2018-10-08","-1"
"S-00001","BW","S-00001-454","947","947","BW","Body Weight","144.8","g","144.8","144.8","g","","1","2018-10-09","1"
"S-00001","BW","S-00001-454","948","948","BW","Body Weight","145.9","g","145.9","145.9","g","","2","2018-10-10","2"
"S-00001","BW","S-00001-454","949","949","BW","Body Weight","144.2","g","144.2","144.2","g","","3","2018-10-11","3"
"S-00001","BW","S-00001-454","950","950","BW","Body Weight","149.1","g","149.1","149.1","g","","4","2018-10-12","4"
"S-00001","BW","S-00001-454","951","951","BW","Body Weight","150.6","g","150.6","150.6","g","","5","2018-10-13","5"
"S-00001","BW","S-00001-454","952","952","BW","Body Weight","156.6","g","156.6","156.6","g","","6","2018-10-14","6"
"S-00001","BW","S-00001-454","953","953","BW","Body Weight","159.8","g","159.8","159.8","g","","7","2018-10-15","7"
"S-00001","BW","S-00001-454","954","954","BW","Body Weight","160.2","g","160.2","160.2","g","","8","2018-10-16","8"
"S-00001","BW","S-00001-454","955","955","BW","Body Weight","165.6","g","165.6","165.6","g","","9","2018-10-17","9"
"S-00001","BW","S-00001-454","956","956","BW","Body Weight","167.8","g","167.8","167.8","g","","10","2018-10-18","10"
"S-00001","BW","S-00001-454","957","957","BW","Body Weight","171.2","g","171.2","171.2","g","","11","2018-10-19","11"
"S-00001","BW","S-00001-454","958","958","BW","Body Weight","173.0","g","173.0","173","g","","12","2018-10-20","12"
"S-00001","BW","S-00001-454","959","959","BW","Body Weight","177.1","g","177.1","177.1","g","","13","2018-10-21","13"
"S-00001","BW","S-00001-454","960","960","BW","Body Weight","178.0","g","178.0","178","g","","14","2018-10-22","14"
"S-00001","BW","S-00001-454","961","961","BW","Body Weight","180.8","g","180.8","180.8","g","","15","2018-10-23","15"
"S-00001","BW","S-00001-454","962","962","BW","Body Weight","184.6","g","184.6","184.6","g","","16","2018-10-24","16"
"S-00001","BW","S-00001-454","963","963","BW","Body Weight","184.6","g","184.6","184.6","g","","17","2018-10-25","17"
"S-00001","BW","S-00001-454","964","964","BW","Body Weight","187.9","g","187.9","187.9","g","","18","2018-10-26","18"
"S-00001","BW","S-00001-454","965","965","BW","Body Weight","192.5","g","192.5","192.5","g","","19","2018-10-27","19"
"S-00001","BW","S-00001-454","966","966","BW","Body Weight","195.3","g","195.3","195.3","g","","20","2018-10-28","20"
"S-00001","BW","S-00001-454","967","967","BW","Body Weight","199.4","g","199.4","199.4","g","","21","2018-10-29","21"
"S-00001","BW","S-00001-454","968","968","BW","Body Weight","198.8","g","198.8","198.8","g","","22","2018-10-30","22"
"S-00001","BW","S-00001-454","969","969","BW","Body Weight","200.6","g","200.6","200.6","g","","23","2018-10-31","23"
"S-00001","BW","S-00001-454","970","970","BW","Body Weight","204.4","g","204.4","204.4","g","","24","2018-11-01","24"
"S-00001","BW","S-00001-454","971","971","BW","Body Weight","207.4","g","207.4","207.4","g","","25","2018-11-02","25"
"S-00001","BW","S-00001-454","972","972","BW","Body Weight","206.6","g","206.6","206.6","g","","26","2018-11-03","26"
"S-00001","BW","S-00001-454","973","973","BW","Body Weight","207.9","g","207.9","207.9","g","","27","2018-11-04","27"
"S-00001","BW","S-00001-454","974","974","BW","Body Weight","206.9","g","206.9","206.9","g","","28","2018-11-05","28"
"S-00001","BW","S-00001-454","975","975","BW","Body Weight","210.1","g","210.1","210.1","g","","29","2018-11-06","29"
"S-00001","BW","S-00001-454","976","976","BW","Body Weight","213.1","g","213.1","213.1","g","","30","2018-11-07","30"
"S-00001","BW","S-00001-454","977","977","BW","Body Weight","216.3","g","216.3","216.3","g","","31","2018-11-08","31"
"S-00001","BW","S-00001-454","978","978","TERMBW","Terminal Body Weight","216.3","g","216.3","216.3","g","","32","2018-11-09","32"
"S-00001","BW","S-00001-455","979","979","BW","Body Weight","125.8","g","125.8","125.8","g","","-1","2018-10-08","-1"
"S-00001","BW","S-00001-455","980","980","BW","Body Weight","128.4","g","128.4","128.4","g","","1","2018-10-09","1"
"S-00001","BW","S-00001-455","981","981","BW","Body Weight","128.7","g","128.7","128.7","g","","2","2018-10-10","2"
"S-00001","BW","S-00001-455","982","982","BW","Body Weight","132.6","g","132.6","132.6","g","","3","2018-10-11","3"
"S-00001","BW","S-00001-455","983","983","BW","Body Weight","133.2","g","133.2","133.2","g","","4","2018-10-12","4"
"S-00001","BW","S-00001-455","984","984","BW","Body Weight","137.5","g","137.5","137.5","g","","5","2018-10-13","5"
"S-00001","BW","S-00001-455","985","985","BW","Body Weight","142.9","g","142.9","142.9","g","","6","2018-10-14","6"
"S-00001","BW","S-00001-455","986","986","BW","Body Weight","143.6","g","143.6","143.6","g","","7","2018-10-15","7"
"S-00001","BW","S-00001-455","987","987","BW","Body Weight","150.4","g","150.4","150.4","g","","8","2018-10-16","8"
"S-00001","BW","S-00001-455","988","988","BW","Body Weight","150.9","g","150.9","150.9","g","","9","2018-10-17","9"
"S-00001","BW","S-00001-455","989","989","BW","Body Weight","150.9","g","150.9","150.9","g","","10","2018-10-18","10"
"S-00001","BW","S-00001-455","990","990","BW","Body Weight","155.4","g","155.4","155.4","g","","11","2018-10-19","11"
"S-00001","BW","S-00001-455","991","991","BW","Body Weight","157.3","g","157.3","157.3","g","","12","2018-10-20","12"
"S-00001","BW","S-00001-455","992","992","BW","Body Weight","158.8","g","158.8","158.8","g","","13","2018-10-21","13"
"S-00001","BW","S-00001-455","993","993","BW","Body Weight","160.0","g","160.0","160","g","","14","2018-10-22","14"
"S-00001","BW","S-00001-455","994","994","BW","Body Weight","163.0","g","163.0","163","g","","15","2018-10-23","15"
"S-00001","BW","S-00001-455","995","995","BW","Body Weight","165.5","g","165.5","165.5","g","","16","2018-10-24","16"
"S-00001","BW","S-00001-455","996","996","BW","Body Weight","164.1","g","164.1","164.1","g","","17","2018-10-25","17"
"S-00001","BW","S-00001-455","997","997","BW","Body Weight","165.6","g","165.6","165.6","g","","18","2018-10-26","18"
"S-00001","BW","S-00001-455","998","998","BW","Body Weight","167.4","g","167.4","167.4","g","","19","2018-10-27","19"
"S-00001","BW","S-00001-455","999","999","BW","Body Weight","168.5","g","168.5","168.5","g","","20","2018-10-28","20"
"S-00001","BW","S-00001-455","1000","1000","BW","Body Weight","172.8","g","172.8","172.8","g","","21","2018-10-29","21"
"S-00001","BW","S-00001-455","1001","1001","BW","Body Weight","177.1","g","177.1","177.1","g","","22","2018-10-30","22"
"S-00001","BW","S-00001-455","1002","1002","BW","Body Weight","178.3","g","178.3","178.3","g","","23","2018-10-31","23"
"S-00001","BW","S-00001-455","1003","1003","BW","Body Weight","179.3","g","179.3","179.3","g","","24","2018-11-01","24"
"S-00001","BW","S-00001-455","1004","1004","BW","Body Weight","181.8","g","181.8","181.8","g","","25","2018-11-02","25"
"S-00001","BW","S-00001-455","1005","1005","BW","Body Weight","178.8","g","178.8","178.8","g","","26","2018-11-03","26"
"S-00001","BW","S-00001-455","1006","1006","BW","Body Weight","181.0","g","181.0","181","g","","27","2018-11-04","27"
"S-00001","BW","S-00001-455","1007","1007","BW","Body Weight","183.2","g","183.2","183.2","g","","28","2018-11-05","28"
"S-00001","BW","S-00001-455","1008","1008","BW","Body Weight","184.8","g","184.8","184.8","g","","29","2018-11-06","29"
"S-00001","BW","S-00001-455","1009","1009","BW","Body Weight","189.6","g","189.6","189.6","g","","30","2018-11-07","30"
"S-00001","BW","S-00001-455","1010","1010","BW","Body Weight","187.4","g","187.4","187.4","g","","31","2018-11-08","31"
"S-00001","BW","S-00001-455","1011","1011","TERMBW","Terminal Body Weight","187.7","g","187.7","187.7","g","","32","2018-11-09","32"
"S-00001","BW","S-00001-456","1012","1012","BW","Body Weight","121.8","g","121.8","121.8","g","","-1","2018-10-08","-1"
"S-00001","BW","S-00001-456","1013","1013","BW","Body Weight","122.8","g","122.8","122.8","g","","1","2018-10-09","1"
"S-00001","BW","S-00001-456","1014","1014","BW","Body Weight","123.6","g","123.6","123.6","g","","2","2018-10-10","2"
"S-00001","BW","S-00001-456","1015","1015","BW","Body Weight","125.0","g","125.0","125","g","","3","2018-10-11","3"
"S-00001","BW","S-00001-456","1016","1016","BW","Body Weight","128.5","g","128.5","128.5","g","","4","2018-10-12","4"
"S-00001","BW","S-00001-456","1017","1017","BW","Body Weight","132.7","g","132.7","132.7","g","","5","2018-10-13","5"
"S-00001","BW","S-00001-456","1018","1018","BW","Body Weight","133.1","g","133.1","133.1","g","","6","2018-10-14","6"
"S-00001","BW","S-00001-456","1019","1019","BW","Body Weight","137.2","g","137.2","137.2","g","","7","2018-10-15","7"
"S-00001","BW","S-00001-456","1020","1020","BW","Body Weight","141.2","g","141.2","141.2","g","","8","2018-10-16","8"
"S-00001","BW","S-00001-456","1021","1021","BW","Body Weight","142.6","g","142.6","142.6","g","","9","2018-10-17","9"
"S-00001","BW","S-00001-456","1022","1022","BW","Body Weight","146.2","g","146.2","146.2","g","","10","2018-10-18","10"
"S-00001","BW","S-00001-456","1023","1023","BW","Body Weight","148.0","g","148.0","148","g","","11","2018-10-19","11"
"S-00001","BW","S-00001-456","1024","1024","BW","Body Weight","150.1","g","150.1","150.1","g","","12","2018-10-20","12"
"S-00001","BW","S-00001-456","1025","1025","BW","Body Weight","154.4","g","154.4","154.4","g","","13","2018-10-21","13"
"S-00001","BW","S-00001-456","1026","1026","BW","Body Weight","154.9","g","154.9","154.9","g","","14","2018-10-22","14"
"S-00001","BW","S-00001-456","1027","1027","BW","Body Weight","159.5","g","159.5","159.5","g","","15","2018-10-23","15"
"S-00001","BW","S-00001-456","1028","1028","BW","Body Weight","158.4","g","158.4","158.4","g","","16","2018-10-24","16"
"S-00001","BW","S-00001-456","1029","1029","BW","Body Weight","160.4","g","160.4","160.4","g","","17","2018-10-25","17"
"S-00001","BW","S-00001-456","1030","1030","BW","Body Weight","162.9","g","162.9","162.9","g","","18","2018-10-26","18"
"S-00001","BW","S-00001-456","1031","1031","BW","Body Weight","166.0","g","166.0","166","g","","19","2018-10-27","19"
"S-00001","BW","S-00001-456","1032","1032","BW","Body Weight","169.7","g","169.7","169.7","g","","20","2018-10-28","20"
"S-00001","BW","S-00001-456","1033","1033","BW","Body Weight","168.5","g","168.5","168.5","g","","21","2018-10-29","21"
"S-00001","BW","S-00001-456","1034","1034","BW","Body Weight","171.9","g","171.9","171.9","g","","22","2018-10-30","22"
"S-00001","BW","S-00001-456","1035","1035","BW","Body Weight","174.0","g","174.0","174","g","","23","2018-10-31","23"
"S-00001","BW","S-00001-456","1036","1036","BW","Body Weight","174.2","g","174.2","174.2","g","","24","2018-11-01","24"
"S-00001","BW","S-00001-456","1037","1037","BW","Body Weight","175.2","g","175.2","175.2","g","","25","2018-11-02","25"
"S-00001","BW","S-00001-456","1038","1038","BW","Body Weight","178.9","g","178.9","178.9","g","","26","2018-11-03","26"
"S-00001","BW","S-00001-456","1039","1039","BW","Body Weight","181.4","g","181.4","181.4","g","","27","2018-11-04","27"
"S-00001","BW","S-00001-456","1040","1040","BW","Body Weight","181.8","g","181.8","181.8","g","","28","2018-11-05","28"
"S-00001","BW","S-00001-456","1041","1041","BW","Body Weight","185.0","g","185.0","185","g","","29","2018-11-06","29"
"S-00001","BW","S-00001-456","1042","1042","BW","Body Weight","186.7","g","186.7","186.7","g","","30","2018-11-07","30"
"S-00001","BW","S-00001-456","1043","1043","BW","Body Weight","187.8","g","187.8","187.8","g","","31","2018-11-08","31"
"S-00001","BW","S-00001-456","1044","1044","TERMBW","Terminal Body Weight","190.0","g","190.0","190","g","","32","2018-11-09","32"
"S-00001","BW","S-00001-551","1045","1045","BW","Body Weight","135.4","g","135.4","135.4","g","","-1","2018-10-08","-1"
"S-00001","BW","S-00001-551","1046","1046","BW","Body Weight","137.2","g","137.2","137.2","g","","1","2018-10-09","1"
"S-00001","BW","S-00001-551","1047","1047","BW","Body Weight","143.5","g","143.5","143.5","g","","2","2018-10-10","2"
"S-00001","BW","S-00001-551","1048","1048","BW","Body Weight","143.8","g","143.8","143.8","g","","3","2018-10-11","3"
"S-00001","BW","S-00001-551","1049","1049","BW","Body Weight","147.3","g","147.3","147.3","g","","4","2018-10-12","4"
"S-00001","BW","S-00001-551","1050","1050","BW","Body Weight","150.2","g","150.2","150.2","g","","5","2018-10-13","5"
"S-00001","BW","S-00001-551","1051","1051","BW","Body Weight","156.1","g","156.1","156.1","g","","6","2018-10-14","6"
"S-00001","BW","S-00001-551","1052","1052","BW","Body Weight","156.4","g","156.4","156.4","g","","7","2018-10-15","7"
"S-00001","BW","S-00001-551","1053","1053","BW","Body Weight","147.4","g","147.4","147.4","g","","8","2018-10-16","8"
"S-00001","BW","S-00001-551","1054","1054","BW","Body Weight","149.3","g","149.3","149.3","g","","9","2018-10-17","9"
"S-00001","BW","S-00001-551","1055","1055","BW","Body Weight","155.2","g","155.2","155.2","g","","10","2018-10-18","10"
"S-00001","BW","S-00001-551","1056","1056","BW","Body Weight","164.5","g","164.5","164.5","g","","11","2018-10-19","11"
"S-00001","BW","S-00001-551","1057","1057","BW","Body Weight","170.2","g","170.2","170.2","g","","12","2018-10-20","12"
"S-00001","BW","S-00001-551","1058","1058","BW","Body Weight","180.1","g","180.1","180.1","g","","13","2018-10-21","13"
"S-00001","BW","S-00001-551","1059","1059","BW","Body Weight","185.4","g","185.4","185.4","g","","14","2018-10-22","14"
"S-00001","BW","S-00001-551","1060","1060","BW","Body Weight","193.0","g","193.0","193","g","","15","2018-10-23","15"
"S-00001","BW","S-00001-551","1061","1061","BW","Body Weight","193.7","g","193.7","193.7","g","","16","2018-10-24","16"
"S-00001","BW","S-00001-551","1062","1062","BW","Body Weight","201.4","g","201.4","201.4","g","","17","2018-10-25","17"
"S-00001","BW","S-00001-551","1063","1063","BW","Body Weight","199.3","g","199.3","199.3","g","","18","2018-10-26","18"
"S-00001","BW","S-00001-551","1064","1064","BW","Body Weight","203.4","g","203.4","203.4","g","","19","2018-10-27","19"
"S-00001","BW","S-00001-551","1065","1065","BW","Body Weight","204.5","g","204.5","204.5","g","","20","2018-10-28","20"
"S-00001","BW","S-00001-551","1066","1066","BW","Body Weight","207.9","g","207.9","207.9","g","","21","2018-10-29","21"
"S-00001","BW","S-00001-551","1067","1067","BW","Body Weight","208.6","g","208.6","208.6","g","","22","2018-10-30","22"
"S-00001","BW","S-00001-551","1068","1068","BW","Body Weight","209.0","g","209.0","209","g","","23","2018-10-31","23"
"S-00001","BW","S-00001-551","1069","1069","BW","Body Weight","211.6","g","211.6","211.6","g","","24","2018-11-01","24"
"S-00001","BW","S-00001-551","1070","1070","BW","Body Weight","214.2","g","214.2","214.2","g","","25","2018-11-02","25"
"S-00001","BW","S-00001-551","1071","1071","BW","Body Weight","218.1","g","218.1","218.1","g","","26","2018-11-03","26"
"S-00001","BW","S-00001-551","1072","1072","BW","Body Weight","219.0","g","219.0","219","g","","27","2018-11-04","27"
"S-00001","BW","S-00001-551","1073","1073","BW","Body Weight","223.5","g","223.5","223.5","g","","28","2018-11-05","28"
"S-00001","BW","S-00001-551","1074","1074","BW","Body Weight","226.9","g","226.9","226.9","g","","29","2018-11-06","29"
"S-00001","BW","S-00001-551","1075","1075","BW","Body Weight","227.6","g","227.6","227.6","g","","30","2018-11-07","30"
"S-00001","BW","S-00001-551","1076","1076","BW","Body Weight","227.6","g","227.6","227.6","g","","31","2018-11-08","31"
"S-00001","BW","S-00001-551","1077","1077","BW","Body Weight","230.5","g","230.5","230.5","g","","32","2018-11-09","32"
"S-00001","BW","S-00001-551","1078","1078","BW","Body Weight","231.7","g","231.7","231.7","g","","33","2018-11-10","33"
"S-00001","BW","S-00001-551","1079","1079","BW","Body Weight","234.2","g","234.2","234.2","g","","34","2018-11-11","34"
"S-00001","BW","S-00001-551","1080","1080","BW","Body Weight","233.2","g","233.2","233.2","g","","35","2018-11-12","35"
"S-00001","BW","S-00001-551","1081","1081","BW","Body Weight","237.5","g","237.5","237.5","g","","36","2018-11-13","36"
"S-00001","BW","S-00001-551","1082","1082","BW","Body Weight","239.1","g","239.1","239.1","g","","37","2018-11-14","37"
"S-00001","BW","S-00001-551","1083","1083","BW","Body Weight","243.0","g","243.0","243","g","","38","2018-11-15","38"
"S-00001","BW","S-00001-551","1084","1084","BW","Body Weight","240.4","g","240.4","240.4","g","","39","2018-11-16","39"
"S-00001","BW","S-00001-551","1085","1085","BW","Body Weight","245.1","g","245.1","245.1","g","","40","2018-11-17","40"
"S-00001","BW","S-00001-551","1086","1086","BW","Body Weight","247.3","g","247.3","247.3","g","","41","2018-11-18","41"
"S-00001","BW","S-00001-551","1087","1087","BW","Body Weight","245.8","g","245.8","245.8","g","","42","2018-11-19","42"
"S-00001","BW","S-00001-551","1088","1088","BW","Body Weight","247.7","g","247.7","247.7","g","","43","2018-11-20","43"
"S-00001","BW","S-00001-551","1089","1089","BW","Body Weight","250.1","g","250.1","250.1","g","","44","2018-11-21","44"
"S-00001","BW","S-00001-551","1090","1090","BW","Body Weight","254.2","g","254.2","254.2","g","","45","2018-11-22","45"
"S-00001","BW","S-00001-551","1091","1091","TERMBW","Terminal Body Weight","255.6","g","255.6","255.6","g","","46","2018-11-23","46"
"S-00001","BW","S-00001-552","1092","1092","BW","Body Weight","120.6","g","120.6","120.6","g","","-1","2018-10-08","-1"
"S-00001","BW","S-00001-552","1093","1093","BW","Body Weight","120.1","g","120.1","120.1","g","","1","2018-10-09","1"
"S-00001","BW","S-00001-552","1094","1094","BW","Body Weight","119.3","g","119.3","119.3","g","","2","2018-10-10","2"
"S-00001","BW","S-00001-552","1095","1095","BW","Body Weight","125.0","g","125.0","125","g","","3","2018-10-11","3"
"S-00001","BW","S-00001-552","1096","1096","BW","Body Weight","125.9","g","125.9","125.9","g","","4","2018-10-12","4"
"S-00001","BW","S-00001-552","1097","1097","BW","Body Weight","127.8","g","127.8","127.8","g","","5","2018-10-13","5"
"S-00001","BW","S-00001-552","1098","1098","BW","Body Weight","127.8","g","127.8","127.8","g","","6","2018-10-14","6"
"S-00001","BW","S-00001-552","1099","1099","BW","Body Weight","133.9","g","133.9","133.9","g","","7","2018-10-15","7"
"S-00001","BW","S-00001-552","1100","1100","BW","Body Weight","135.5","g","135.5","135.5","g","","8","2018-10-16","8"
"S-00001","BW","S-00001-552","1101","1101","BW","Body Weight","140.3","g","140.3","140.3","g","","9","2018-10-17","9"
"S-00001","BW","S-00001-552","1102","1102","BW","Body Weight","142.6","g","142.6","142.6","g","","10","2018-10-18","10"
"S-00001","BW","S-00001-552","1103","1103","BW","Body Weight","149.3","g","149.3","149.3","g","","11","2018-10-19","11"
"S-00001","BW","S-00001-552","1104","1104","BW","Body Weight","153.3","g","153.3","153.3","g","","12","2018-10-20","12"
"S-00001","BW","S-00001-552","1105","1105","BW","Body Weight","156.7","g","156.7","156.7","g","","13","2018-10-21","13"
"S-00001","BW","S-00001-552","1106","1106","BW","Body Weight","161.4","g","161.4","161.4","g","","14","2018-10-22","14"
"S-00001","BW","S-00001-552","1107","1107","BW","Body Weight","166.8","g","166.8","166.8","g","","15","2018-10-23","15"
"S-00001","BW","S-00001-552","1108","1108","BW","Body Weight","163.0","g","163.0","163","g","","16","2018-10-24","16"
"S-00001","BW","S-00001-552","1109","1109","BW","Body Weight","167.2","g","167.2","167.2","g","","17","2018-10-25","17"
"S-00001","BW","S-00001-552","1110","1110","BW","Body Weight","167.6","g","167.6","167.6","g","","18","2018-10-26","18"
"S-00001","BW","S-00001-552","1111","1111","BW","Body Weight","164.7","g","164.7","164.7","g","","19","2018-10-27","19"
"S-00001","BW","S-00001-552","1112","1112","BW","Body Weight","167.3","g","167.3","167.3","g","","20","2018-10-28","20"
"S-00001","BW","S-00001-552","1113","1113","BW","Body Weight","170.0","g","170.0","170","g","","21","2018-10-29","21"
"S-00001","BW","S-00001-552","1114","1114","BW","Body Weight","171.4","g","171.4","171.4","g","","22","2018-10-30","22"
"S-00001","BW","S-00001-552","1115","1115","BW","Body Weight","172.3","g","172.3","172.3","g","","23","2018-10-31","23"
"S-00001","BW","S-00001-552","1116","1116","BW","Body Weight","172.4","g","172.4","172.4","g","","24","2018-11-01","24"
"S-00001","BW","S-00001-552","1117","1117","BW","Body Weight","176.7","g","176.7","176.7","g","","25","2018-11-02","25"
"S-00001","BW","S-00001-552","1118","1118","BW","Body Weight","177.9","g","177.9","177.9","g","","26","2018-11-03","26"
"S-00001","BW","S-00001-552","1119","1119","BW","Body Weight","175.7","g","175.7","175.7","g","","27","2018-11-04","27"
"S-00001","BW","S-00001-552","1120","1120","BW","Body Weight","178.4","g","178.4","178.4","g","","28","2018-11-05","28"
"S-00001","BW","S-00001-552","1121","1121","BW","Body Weight","180.9","g","180.9","180.9","g","","29","2018-11-06","29"
"S-00001","BW","S-00001-552","1122","1122","BW","Body Weight","182.6","g","182.6","182.6","g","","30","2018-11-07","30"
"S-00001","BW","S-00001-552","1123","1123","BW","Body Weight","182.9","g","182.9","182.9","g","","31","2018-11-08","31"
"S-00001","BW","S-00001-552","1124","1124","BW","Body Weight","185.1","g","185.1","185.1","g","","32","2018-11-09","32"
"S-00001","BW","S-00001-552","1125","1125","BW","Body Weight","187.7","g","187.7","187.7","g","","33","2018-11-10","33"
"S-00001","BW","S-00001-552","1126","1126","BW","Body Weight","188.5","g","188.5","188.5","g","","34","2018-11-11","34"
"S-00001","BW","S-00001-552","1127","1127","BW","Body Weight","186.7","g","186.7","186.7","g","","35","2018-11-12","35"
"S-00001","BW","S-00001-552","1128","1128","BW","Body Weight","191.1","g","191.1","191.1","g","","36","2018-11-13","36"
"S-00001","BW","S-00001-552","1129","1129","BW","Body Weight","192.4","g","192.4","192.4","g","","37","2018-11-14","37"
"S-00001","BW","S-00001-552","1130","1130","BW","Body Weight","195.9","g","195.9","195.9","g","","38","2018-11-15","38"
"S-00001","BW","S-00001-552","1131","1131","BW","Body Weight","193.7","g","193.7","193.7","g","","39","2018-11-16","39"
"S-00001","BW","S-00001-552","1132","1132","BW","Body Weight","193.7","g","193.7","193.7","g","","40","2018-11-17","40"
"S-00001","BW","S-00001-552","1133","1133","BW","Body Weight","197.3","g","197.3","197.3","g","","41","2018-11-18","41"
"S-00001","BW","S-00001-552","1134","1134","BW","Body Weight","201.3","g","201.3","201.3","g","","42","2018-11-19","42"
"S-00001","BW","S-00001-552","1135","1135","BW","Body Weight","199.1","g","199.1","199.1","g","","43","2018-11-20","43"
"S-00001","BW","S-00001-552","1136","1136","BW","Body Weight","193.0","g","193.0","193","g","","44","2018-11-21","44"
"S-00001","BW","S-00001-552","1137","1137","BW","Body Weight","201.8","g","201.8","201.8","g","","45","2018-11-22","45"
"S-00001","BW","S-00001-552","1138","1138","TERMBW","Terminal Body Weight","204.1","g","204.1","204.1","g","","46","2018-11-23","46"
"S-00001","BW","S-00001-553","1139","1139","BW","Body Weight","129.9","g","129.9","129.9","g","","-1","2018-10-08","-1"
"S-00001","BW","S-00001-553","1140","1140","BW","Body Weight","129.2","g","129.2","129.2","g","","1","2018-10-09","1"
"S-00001","BW","S-00001-553","1141","1141","BW","Body Weight","132.4","g","132.4","132.4","g","","2","2018-10-10","2"
"S-00001","BW","S-00001-553","1142","1142","BW","Body Weight","136.2","g","136.2","136.2","g","","3","2018-10-11","3"
"S-00001","BW","S-00001-553","1143","1143","BW","Body Weight","139.8","g","139.8","139.8","g","","4","2018-10-12","4"
"S-00001","BW","S-00001-553","1144","1144","BW","Body Weight","141.3","g","141.3","141.3","g","","5","2018-10-13","5"
"S-00001","BW","S-00001-553","1145","1145","BW","Body Weight","142.0","g","142.0","142","g","","6","2018-10-14","6"
"S-00001","BW","S-00001-553","1146","1146","BW","Body Weight","144.0","g","144.0","144","g","","7","2018-10-15","7"
"S-00001","BW","S-00001-553","1147","1147","BW","Body Weight","147.3","g","147.3","147.3","g","","8","2018-10-16","8"
"S-00001","BW","S-00001-553","1148","1148","BW","Body Weight","153.1","g","153.1","153.1","g","","9","2018-10-17","9"
"S-00001","BW","S-00001-553","1149","1149","BW","Body Weight","153.7","g","153.7","153.7","g","","10","2018-10-18","10"
"S-00001","BW","S-00001-553","1150","1150","BW","Body Weight","154.8","g","154.8","154.8","g","","11","2018-10-19","11"
"S-00001","BW","S-00001-553","1151","1151","BW","Body Weight","159.2","g","159.2","159.2","g","","12","2018-10-20","12"
"S-00001","BW","S-00001-553","1152","1152","BW","Body Weight","165.7","g","165.7","165.7","g","","13","2018-10-21","13"
"S-00001","BW","S-00001-553","1153","1153","BW","Body Weight","167.0","g","167.0","167","g","","14","2018-10-22","14"
"S-00001","BW","S-00001-553","1154","1154","BW","Body Weight","170.4","g","170.4","170.4","g","","15","2018-10-23","15"
"S-00001","BW","S-00001-553","1155","1155","BW","Body Weight","171.0","g","171.0","171","g","","16","2018-10-24","16"
"S-00001","BW","S-00001-553","1156","1156","BW","Body Weight","177.8","g","177.8","177.8","g","","17","2018-10-25","17"
"S-00001","BW","S-00001-553","1157","1157","BW","Body Weight","180.1","g","180.1","180.1","g","","18","2018-10-26","18"
"S-00001","BW","S-00001-553","1158","1158","BW","Body Weight","180.8","g","180.8","180.8","g","","19","2018-10-27","19"
"S-00001","BW","S-00001-553","1159","1159","BW","Body Weight","183.2","g","183.2","183.2","g","","20","2018-10-28","20"
"S-00001","BW","S-00001-553","1160","1160","BW","Body Weight","187.6","g","187.6","187.6","g","","21","2018-10-29","21"
"S-00001","BW","S-00001-553","1161","1161","BW","Body Weight","190.1","g","190.1","190.1","g","","22","2018-10-30","22"
"S-00001","BW","S-00001-553","1162","1162","BW","Body Weight","190.8","g","190.8","190.8","g","","23","2018-10-31","23"
"S-00001","BW","S-00001-553","1163","1163","BW","Body Weight","194.7","g","194.7","194.7","g","","24","2018-11-01","24"
"S-00001","BW","S-00001-553","1164","1164","BW","Body Weight","196.4","g","196.4","196.4","g","","25","2018-11-02","25"
"S-00001","BW","S-00001-553","1165","1165","BW","Body Weight","200.2","g","200.2","200.2","g","","26","2018-11-03","26"
"S-00001","BW","S-00001-553","1166","1166","BW","Body Weight","197.6","g","197.6","197.6","g","","27","2018-11-04","27"
"S-00001","BW","S-00001-553","1167","1167","BW","Body Weight","203.8","g","203.8","203.8","g","","28","2018-11-05","28"
"S-00001","BW","S-00001-553","1168","1168","BW","Body Weight","205.6","g","205.6","205.6","g","","29","2018-11-06","29"
"S-00001","BW","S-00001-553","1169","1169","BW","Body Weight","207.8","g","207.8","207.8","g","","30","2018-11-07","30"
"S-00001","BW","S-00001-553","1170","1170","BW","Body Weight","206.6","g","206.6","206.6","g","","31","2018-11-08","31"
"S-00001","BW","S-00001-553","1171","1171","BW","Body Weight","208.5","g","208.5","208.5","g","","32","2018-11-09","32"
"S-00001","BW","S-00001-553","1172","1172","BW","Body Weight","209.2","g","209.2","209.2","g","","33","2018-11-10","33"
"S-00001","BW","S-00001-553","1173","1173","BW","Body Weight","209.0","g","209.0","209","g","","34","2018-11-11","34"
"S-00001","BW","S-00001-553","1174","1174","BW","Body Weight","210.0","g","210.0","210","g","","35","2018-11-12","35"
"S-00001","BW","S-00001-553","1175","1175","BW","Body Weight","216.3","g","216.3","216.3","g","","36","2018-11-13","36"
"S-00001","BW","S-00001-553","1176","1176","BW","Body Weight","215.2","g","215.2","215.2","g","","37","2018-11-14","37"
"S-00001","BW","S-00001-553","1177","1177","BW","Body Weight","220.7","g","220.7","220.7","g","","38","2018-11-15","38"
"S-00001","BW","S-00001-553","1178","1178","BW","Body Weight","219.4","g","219.4","219.4","g","","39","2018-11-16","39"
"S-00001","BW","S-00001-553","1179","1179","BW","Body Weight","218.9","g","218.9","218.9","g","","40","2018-11-17","40"
"S-00001","BW","S-00001-553","1180","1180","BW","Body Weight","223.0","g","223.0","223","g","","41","2018-11-18","41"
"S-00001","BW","S-00001-553","1181","1181","BW","Body Weight","223.6","g","223.6","223.6","g","","42","2018-11-19","42"
"S-00001","BW","S-00001-553","1182","1182","BW","Body Weight","220.9","g","220.9","220.9","g","","43","2018-11-20","43"
"S-00001","BW","S-00001-553","1183","1183","BW","Body Weight","225.4","g","225.4","225.4","g","","44","2018-11-21","44"
"S-00001","BW","S-00001-553","1184","1184","BW","Body Weight","228.7","g","228.7","228.7","g","","45","2018-11-22","45"
"S-00001","BW","S-00001-553","1185","1185","TERMBW","Terminal Body Weight","232.6","g","232.6","232.6","g","","46","2018-11-23","46"
"S-00001","BW","S-00001-554","1186","1186","BW","Body Weight","138.7","g","138.7","138.7","g","","-1","2018-10-08","-1"
"S-00001","BW","S-00001-554","1187","1187","BW","Body Weight","140.7","g","140.7","140.7","g","","1","2018-10-09","1"
"S-00001","BW","S-00001-554","1188","1188","BW","Body Weight","147.6","g","147.6","147.6","g","","2","2018-10-10","2"
"S-00001","BW","S-00001-554","1189","1189","BW","Body Weight","150.0","g","150.0","150","g","","3","2018-10-11","3"
"S-00001","BW","S-00001-554","1190","1190","BW","Body Weight","152.0","g","152.0","152","g","","4","2018-10-12","4"
"S-00001","BW","S-00001-554","1191","1191","BW","Body Weight","155.7","g","155.7","155.7","g","","5","2018-10-13","5"
"S-00001","BW","S-00001-554","1192","1192","BW","Body Weight","158.0","g","158.0","158","g","","6","2018-10-14","6"
"S-00001","BW","S-00001-554","1193","1193","BW","Body Weight","158.4","g","158.4","158.4","g","","7","2018-10-15","7"
"S-00001","BW","S-00001-554","1194","1194","BW","Body Weight","165.8","g","165.8","165.8","g","","8","2018-10-16","8"
"S-00001","BW","S-00001-554","1195","1195","BW","Body Weight","168.7","g","168.7","168.7","g","","9","2018-10-17","9"
"S-00001","BW","S-00001-554","1196","1196","BW","Body Weight","172.5","g","172.5","172.5","g","","10","2018-10-18","10"
"S-00001","BW","S-00001-554","1197","1197","BW","Body Weight","174.7","g","174.7","174.7","g","","11","2018-10-19","11"
"S-00001","BW","S-00001-554","1198","1198","BW","Body Weight","178.5","g","178.5","178.5","g","","12","2018-10-20","12"
"S-00001","BW","S-00001-554","1199","1199","BW","Body Weight","184.8","g","184.8","184.8","g","","13","2018-10-21","13"
"S-00001","BW","S-00001-554","1200","1200","BW","Body Weight","186.3","g","186.3","186.3","g","","14","2018-10-22","14"
"S-00001","BW","S-00001-554","1201","1201","BW","Body Weight","188.9","g","188.9","188.9","g","","15","2018-10-23","15"
"S-00001","BW","S-00001-554","1202","1202","BW","Body Weight","189.4","g","189.4","189.4","g","","16","2018-10-24","16"
"S-00001","BW","S-00001-554","1203","1203","BW","Body Weight","194.1","g","194.1","194.1","g","","17","2018-10-25","17"
"S-00001","BW","S-00001-554","1204","1204","BW","Body Weight","198.4","g","198.4","198.4","g","","18","2018-10-26","18"
"S-00001","BW","S-00001-554","1205","1205","BW","Body Weight","202.0","g","202.0","202","g","","19","2018-10-27","19"
"S-00001","BW","S-00001-554","1206","1206","BW","Body Weight","204.3","g","204.3","204.3","g","","20","2018-10-28","20"
"S-00001","BW","S-00001-554","1207","1207","BW","Body Weight","207.5","g","207.5","207.5","g","","21","2018-10-29","21"
"S-00001","BW","S-00001-554","1208","1208","BW","Body Weight","211.8","g","211.8","211.8","g","","22","2018-10-30","22"
"S-00001","BW","S-00001-554","1209","1209","BW","Body Weight","214.5","g","214.5","214.5","g","","23","2018-10-31","23"
"S-00001","BW","S-00001-554","1210","1210","BW","Body Weight","212.2","g","212.2","212.2","g","","24","2018-11-01","24"
"S-00001","BW","S-00001-554","1211","1211","BW","Body Weight","216.2","g","216.2","216.2","g","","25","2018-11-02","25"
"S-00001","BW","S-00001-554","1212","1212","BW","Body Weight","217.4","g","217.4","217.4","g","","26","2018-11-03","26"
"S-00001","BW","S-00001-554","1213","1213","BW","Body Weight","216.6","g","216.6","216.6","g","","27","2018-11-04","27"
"S-00001","BW","S-00001-554","1214","1214","BW","Body Weight","219.0","g","219.0","219","g","","28","2018-11-05","28"
"S-00001","BW","S-00001-554","1215","1215","BW","Body Weight","219.4","g","219.4","219.4","g","","29","2018-11-06","29"
"S-00001","BW","S-00001-554","1216","1216","BW","Body Weight","223.3","g","223.3","223.3","g","","30","2018-11-07","30"
"S-00001","BW","S-00001-554","1217","1217","BW","Body Weight","221.2","g","221.2","221.2","g","","31","2018-11-08","31"
"S-00001","BW","S-00001-554","1218","1218","BW","Body Weight","224.9","g","224.9","224.9","g","","32","2018-11-09","32"
"S-00001","BW","S-00001-554","1219","1219","BW","Body Weight","226.8","g","226.8","226.8","g","","33","2018-11-10","33"
"S-00001","BW","S-00001-554","1220","1220","BW","Body Weight","226.6","g","226.6","226.6","g","","34","2018-11-11","34"
"S-00001","BW","S-00001-554","1221","1221","BW","Body Weight","225.4","g","225.4","225.4","g","","35","2018-11-12","35"
"S-00001","BW","S-00001-554","1222","1222","BW","Body Weight","230.5","g","230.5","230.5","g","","36","2018-11-13","36"
"S-00001","BW","S-00001-554","1223","1223","BW","Body Weight","234.3","g","234.3","234.3","g","","37","2018-11-14","37"
"S-00001","BW","S-00001-554","1224","1224","BW","Body Weight","236.5","g","236.5","236.5","g","","38","2018-11-15","38"
"S-00001","BW","S-00001-554","1225","1225","BW","Body Weight","236.7","g","236.7","236.7","g","","39","2018-11-16","39"
"S-00001","BW","S-00001-554","1226","1226","BW","Body Weight","239.5","g","239.5","239.5","g","","40","2018-11-17","40"
"S-00001","BW","S-00001-554","1227","1227","BW","Body Weight","239.9","g","239.9","239.9","g","","41","2018-11-18","41"
"S-00001","BW","S-00001-554","1228","1228","BW","Body Weight","245.1","g","245.1","245.1","g","","42","2018-11-19","42"
"S-00001","BW","S-00001-554","1229","1229","BW","Body Weight","237.5","g","237.5","237.5","g","","43","2018-11-20","43"
"S-00001","BW","S-00001-554","1230","1230","BW","Body Weight","243.1","g","243.1","243.1","g","","44","2018-11-21","44"
"S-00001","BW","S-00001-554","1231","1231","BW","Body Weight","248.3","g","248.3","248.3","g","","45","2018-11-22","45"
"S-00001","BW","S-00001-554","1232","1232","TERMBW","Terminal Body Weight","252.6","g","252.6","252.6","g","","46","2018-11-23","46"
"S-00001","BW","S-00001-555","1233","1233","BW","Body Weight","118.6","g","118.6","118.6","g","","-1","2018-10-08","-1"
"S-00001","BW","S-00001-555","1234","1234","BW","Body Weight","117.6","g","117.6","117.6","g","","1","2018-10-09","1"
"S-00001","BW","S-00001-555","1235","1235","BW","Body Weight","123.1","g","123.1","123.1","g","","2","2018-10-10","2"
"S-00001","BW","S-00001-555","1236","1236","BW","Body Weight","125.9","g","125.9","125.9","g","","3","2018-10-11","3"
"S-00001","BW","S-00001-555","1237","1237","BW","Body Weight","127.7","g","127.7","127.7","g","","4","2018-10-12","4"
"S-00001","BW","S-00001-555","1238","1238","BW","Body Weight","126.3","g","126.3","126.3","g","","5","2018-10-13","5"
"S-00001","BW","S-00001-555","1239","1239","BW","Body Weight","131.1","g","131.1","131.1","g","","6","2018-10-14","6"
"S-00001","BW","S-00001-555","1240","1240","BW","Body Weight","133.2","g","133.2","133.2","g","","7","2018-10-15","7"
"S-00001","BW","S-00001-555","1241","1241","BW","Body Weight","137.8","g","137.8","137.8","g","","8","2018-10-16","8"
"S-00001","BW","S-00001-555","1242","1242","BW","Body Weight","135.3","g","135.3","135.3","g","","9","2018-10-17","9"
"S-00001","BW","S-00001-555","1243","1243","BW","Body Weight","140.9","g","140.9","140.9","g","","10","2018-10-18","10"
"S-00001","BW","S-00001-555","1244","1244","BW","Body Weight","143.5","g","143.5","143.5","g","","11","2018-10-19","11"
"S-00001","BW","S-00001-555","1245","1245","BW","Body Weight","148.0","g","148.0","148","g","","12","2018-10-20","12"
"S-00001","BW","S-00001-555","1246","1246","BW","Body Weight","146.7","g","146.7","146.7","g","","13","2018-10-21","13"
"S-00001","BW","S-00001-555","1247","1247","BW","Body Weight","152.0","g","152.0","152","g","","14","2018-10-22","14"
"S-00001","BW","S-00001-555","1248","1248","BW","Body Weight","152.4","g","152.4","152.4","g","","15","2018-10-23","15"
"S-00001","BW","S-00001-555","1249","1249","BW","Body Weight","153.8","g","153.8","153.8","g","","16","2018-10-24","16"
"S-00001","BW","S-00001-555","1250","1250","BW","Body Weight","156.8","g","156.8","156.8","g","","17","2018-10-25","17"
"S-00001","BW","S-00001-555","1251","1251","BW","Body Weight","154.1","g","154.1","154.1","g","","18","2018-10-26","18"
"S-00001","BW","S-00001-555","1252","1252","BW","Body Weight","159.3","g","159.3","159.3","g","","19","2018-10-27","19"
"S-00001","BW","S-00001-555","1253","1253","BW","Body Weight","161.7","g","161.7","161.7","g","","20","2018-10-28","20"
"S-00001","BW","S-00001-555","1254","1254","BW","Body Weight","165.5","g","165.5","165.5","g","","21","2018-10-29","21"
"S-00001","BW","S-00001-555","1255","1255","BW","Body Weight","167.1","g","167.1","167.1","g","","22","2018-10-30","22"
"S-00001","BW","S-00001-555","1256","1256","BW","Body Weight","166.4","g","166.4","166.4","g","","23","2018-10-31","23"
"S-00001","BW","S-00001-555","1257","1257","BW","Body Weight","167.8","g","167.8","167.8","g","","24","2018-11-01","24"
"S-00001","BW","S-00001-555","1258","1258","BW","Body Weight","171.3","g","171.3","171.3","g","","25","2018-11-02","25"
"S-00001","BW","S-00001-555","1259","1259","BW","Body Weight","172.2","g","172.2","172.2","g","","26","2018-11-03","26"
"S-00001","BW","S-00001-555","1260","1260","BW","Body Weight","171.6","g","171.6","171.6","g","","27","2018-11-04","27"
"S-00001","BW","S-00001-555","1261","1261","BW","Body Weight","171.0","g","171.0","171","g","","28","2018-11-05","28"
"S-00001","BW","S-00001-555","1262","1262","BW","Body Weight","174.9","g","174.9","174.9","g","","29","2018-11-06","29"
"S-00001","BW","S-00001-555","1263","1263","BW","Body Weight","177.2","g","177.2","177.2","g","","30","2018-11-07","30"
"S-00001","BW","S-00001-555","1264","1264","BW","Body Weight","178.6","g","178.6","178.6","g","","31","2018-11-08","31"
"S-00001","BW","S-00001-555","1265","1265","BW","Body Weight","177.1","g","177.1","177.1","g","","32","2018-11-09","32"
"S-00001","BW","S-00001-555","1266","1266","BW","Body Weight","182.1","g","182.1","182.1","g","","33","2018-11-10","33"
"S-00001","BW","S-00001-555","1267","1267","BW","Body Weight","180.4","g","180.4","180.4","g","","34","2018-11-11","34"
"S-00001","BW","S-00001-555","1268","1268","BW","Body Weight","184.8","g","184.8","184.8","g","","35","2018-11-12","35"
"S-00001","BW","S-00001-555","1269","1269","BW","Body Weight","183.1","g","183.1","183.1","g","","36","2018-11-13","36"
"S-00001","BW","S-00001-555","1270","1270","BW","Body Weight","187.0","g","187.0","187","g","","37","2018-11-14","37"
"S-00001","BW","S-00001-555","1271","1271","BW","Body Weight","188.7","g","188.7","188.7","g","","38","2018-11-15","38"
"S-00001","BW","S-00001-555","1272","1272","BW","Body Weight","189.6","g","189.6","189.6","g","","39","2018-11-16","39"
"S-00001","BW","S-00001-555","1273","1273","BW","Body Weight","187.6","g","187.6","187.6","g","","40","2018-11-17","40"
"S-00001","BW","S-00001-555","1274","1274","BW","Body Weight","191.2","g","191.2","191.2","g","","41","2018-11-18","41"
"S-00001","BW","S-00001-555","1275","1275","BW","Body Weight","194.2","g","194.2","194.2","g","","42","2018-11-19","42"
"S-00001","BW","S-00001-555","1276","1276","BW","Body Weight","195.2","g","195.2","195.2","g","","43","2018-11-20","43"
"S-00001","BW","S-00001-555","1277","1277","BW","Body Weight","189.4","g","189.4","189.4","g","","44","2018-11-21","44"
"S-00001","BW","S-00001-555","1278","1278","BW","Body Weight","197.0","g","197.0","197","g","","45","2018-11-22","45"
"S-00001","BW","S-00001-555","1279","1279","TERMBW","Terminal Body Weight","198.9","g","198.9","198.9","g","","46","2018-11-23","46"
"S-00001","BW","S-00001-556","1280","1280","BW","Body Weight","130.0","g","130.0","130","g","","-1","2018-10-08","-1"
"S-00001","BW","S-00001-556","1281","1281","BW","Body Weight","137.9","g","137.9","137.9","g","","1","2018-10-09","1"
"S-00001","BW","S-00001-556","1282","1282","BW","Body Weight","139.8","g","139.8","139.8","g","","2","2018-10-10","2"
"S-00001","BW","S-00001-556","1283","1283","BW","Body Weight","139.3","g","139.3","139.3","g","","3","2018-10-11","3"
"S-00001","BW","S-00001-556","1284","1284","BW","Body Weight","144.6","g","144.6","144.6","g","","4","2018-10-12","4"
"S-00001","BW","S-00001-556","1285","1285","BW","Body Weight","147.1","g","147.1","147.1","g","","5","2018-10-13","5"
"S-00001","BW","S-00001-556","1286","1286","BW","Body Weight","151.5","g","151.5","151.5","g","","6","2018-10-14","6"
"S-00001","BW","S-00001-556","1287","1287","BW","Body Weight","151.0","g","151.0","151","g","","7","2018-10-15","7"
"S-00001","BW","S-00001-556","1288","1288","BW","Body Weight","152.2","g","152.2","152.2","g","","8","2018-10-16","8"
"S-00001","BW","S-00001-556","1289","1289","BW","Body Weight","156.3","g","156.3","156.3","g","","9","2018-10-17","9"
"S-00001","BW","S-00001-556","1290","1290","BW","Body Weight","161.7","g","161.7","161.7","g","","10","2018-10-18","10"
"S-00001","BW","S-00001-556","1291","1291","BW","Body Weight","165.4","g","165.4","165.4","g","","11","2018-10-19","11"
"S-00001","BW","S-00001-556","1292","1292","BW","Body Weight","166.2","g","166.2","166.2","g","","12","2018-10-20","12"
"S-00001","BW","S-00001-556","1293","1293","BW","Body Weight","170.1","g","170.1","170.1","g","","13","2018-10-21","13"
"S-00001","BW","S-00001-556","1294","1294","BW","Body Weight","175.2","g","175.2","175.2","g","","14","2018-10-22","14"
"S-00001","BW","S-00001-556","1295","1295","BW","Body Weight","178.2","g","178.2","178.2","g","","15","2018-10-23","15"
"S-00001","BW","S-00001-556","1296","1296","BW","Body Weight","176.2","g","176.2","176.2","g","","16","2018-10-24","16"
"S-00001","BW","S-00001-556","1297","1297","BW","Body Weight","183.4","g","183.4","183.4","g","","17","2018-10-25","17"
"S-00001","BW","S-00001-556","1298","1298","BW","Body Weight","185.1","g","185.1","185.1","g","","18","2018-10-26","18"
"S-00001","BW","S-00001-556","1299","1299","BW","Body Weight","187.7","g","187.7","187.7","g","","19","2018-10-27","19"
"S-00001","BW","S-00001-556","1300","1300","BW","Body Weight","188.6","g","188.6","188.6","g","","20","2018-10-28","20"
"S-00001","BW","S-00001-556","1301","1301","BW","Body Weight","193.4","g","193.4","193.4","g","","21","2018-10-29","21"
"S-00001","BW","S-00001-556","1302","1302","BW","Body Weight","197.9","g","197.9","197.9","g","","22","2018-10-30","22"
"S-00001","BW","S-00001-556","1303","1303","BW","Body Weight","198.0","g","198.0","198","g","","23","2018-10-31","23"
"S-00001","BW","S-00001-556","1304","1304","BW","Body Weight","197.8","g","197.8","197.8","g","","24","2018-11-01","24"
"S-00001","BW","S-00001-556","1305","1305","BW","Body Weight","202.5","g","202.5","202.5","g","","25","2018-11-02","25"
"S-00001","BW","S-00001-556","1306","1306","BW","Body Weight","206.5","g","206.5","206.5","g","","26","2018-11-03","26"
"S-00001","BW","S-00001-556","1307","1307","BW","Body Weight","206.3","g","206.3","206.3","g","","27","2018-11-04","27"
"S-00001","BW","S-00001-556","1308","1308","BW","Body Weight","204.9","g","204.9","204.9","g","","28","2018-11-05","28"
"S-00001","BW","S-00001-556","1309","1309","BW","Body Weight","213.3","g","213.3","213.3","g","","29","2018-11-06","29"
"S-00001","BW","S-00001-556","1310","1310","BW","Body Weight","211.2","g","211.2","211.2","g","","30","2018-11-07","30"
"S-00001","BW","S-00001-556","1311","1311","BW","Body Weight","213.4","g","213.4","213.4","g","","31","2018-11-08","31"
"S-00001","BW","S-00001-556","1312","1312","BW","Body Weight","214.6","g","214.6","214.6","g","","32","2018-11-09","32"
"S-00001","BW","S-00001-556","1313","1313","BW","Body Weight","214.3","g","214.3","214.3","g","","33","2018-11-10","33"
"S-00001","BW","S-00001-556","1314","1314","BW","Body Weight","216.2","g","216.2","216.2","g","","34","2018-11-11","34"
"S-00001","BW","S-00001-556","1315","1315","BW","Body Weight","217.9","g","217.9","217.9","g","","35","2018-11-12","35"
"S-00001","BW","S-00001-556","1316","1316","BW","Body Weight","219.2","g","219.2","219.2","g","","36","2018-11-13","36"
"S-00001","BW","S-00001-556","1317","1317","BW","Body Weight","223.3","g","223.3","223.3","g","","37","2018-11-14","37"
"S-00001","BW","S-00001-556","1318","1318","BW","Body Weight","225.4","g","225.4","225.4","g","","38","2018-11-15","38"
"S-00001","BW","S-00001-556","1319","1319","BW","Body Weight","224.4","g","224.4","224.4","g","","39","2018-11-16","39"
"S-00001","BW","S-00001-556","1320","1320","BW","Body Weight","224.7","g","224.7","224.7","g","","40","2018-11-17","40"
"S-00001","BW","S-00001-556","1321","1321","BW","Body Weight","227.5","g","227.5","227.5","g","","41","2018-11-18","41"
"S-00001","BW","S-00001-556","1322","1322","BW","Body Weight","228.4","g","228.4","228.4","g","","42","2018-11-19","42"
"S-00001","BW","S-00001-556","1323","1323","BW","Body Weight","229.8","g","229.8","229.8","g","","43","2018-11-20","43"
"S-00001","BW","S-00001-556","1324","1324","BW","Body Weight","225.8","g","225.8","225.8","g","","44","2018-11-21","44"
"S-00001","BW","S-00001-556","1325","1325","BW","Body Weight","231.3","g","231.3","231.3","g","","45","2018-11-22","45"
"S-00001","BW","S-00001-556","1326","1326","TERMBW","Terminal Body Weight","235.8","g","235.8","235.8","g","","46","2018-11-23","46"
