"STUDYID","DOMAIN","USUBJID","CLSEQ","CLREFID","CLTESTCD","CLTEST","CLCAT","CLORRES","CLSTRESC","CLLOC","VISITDY","CLDTC","CLDY","CLTPT","CLTPTNUM"
"S-00001","CL","S-00001-151","1","1","CS","Clinical Sign","CLINICAL SIGNS","NORMAL","NORMAL","","1","2018-10-09","1","Immediately after dosing","2"
"S-00001","CL","S-00001-151","2","2","CS","Clinical Sign","CLINICAL SIGNS","NORMAL","NORMAL","","1","2018-10-09","1","0.5h after treatment","3"
"S-00001","CL","S-00001-151","3","3","CS","Clinical Sign","CLINICAL SIGNS","NORMAL","NORMAL","","1","2018-10-09","1","Afternoon","4"
"S-00001","CL","S-00001-151","4","4","CS","Clinical Sign","CLINICAL SIGNS","NORMAL","NORMAL","","1","2018-10-09","1","End of the Day","5"
"S-00001","CL","S-00001-151","5","5","CS","Clinical Sign","CLINICAL SIGNS","NORMAL","NORMAL","","2","2018-10-10","2","Before Dosing","1"
"S-00001","CL","S-00001-151","6","6","CS","Clinical Sign","CLINICAL SIGNS","NORMAL","NORMAL","","2","2018-10-10","2","Immediately after dosing","2"
"S-00001","CL","S-00001-151","7","7","CS","Clinical Sign","CLINICAL SIGNS","NORMAL","NORMAL","","2","2018-10-10","2","0.5h after treatment","3"
"S-00001","CL","S-00001-151","8","8","CS","Clinical Sign","CLINICAL SIGNS","NORMAL","NORMAL","","2","2018-10-10","2","Afternoon","4"
"S-00001","CL","S-00001-151","9","9","CS","Clinical Sign","CLINICAL SIGNS","NORMAL","NORMAL","","2","2018-10-10","2","End of the Day","5"
"S-00001","CL","S-00001-151","10","10","CS","Clinical Sign","CLINICAL SIGNS","NORMAL","NORMAL","","3","2018-10-11","3","Before Dosing","1"
"S-00001","CL","S-00001-151","11","11","CS","Clinical Sign","CLINICAL SIGNS","NORMAL","NORMAL","","3","2018-10-11","3","Immediately after dosing","2"
"S-00001","CL","S-00001-151","12","12","CS","Clinical Sign","CLINICAL SIGNS","NORMAL","NORMAL","","3","2018-10-11","3","0.5h after treatment","3"
"S-00001","CL","S-00001-151","13","13","CS","Clinical Sign","CLINICAL SIGNS","NORMAL","NORMAL","","3","2018-10-11","3","Afternoon","4"
"S-00001","CL","S-00001-151","14","14","CS","Clinical Sign","CLINICAL SIGNS","NORMAL","NORMAL","","3","2018-10-11","3","End of the Day","5"
"S-00001","CL","S-00001-151","15","15","CS","Clinical Sign","CLINICAL SIGNS","NORMAL","NORMAL","","4","2018-10-12","4","Before Dosing","1"
"S-00001","CL","S-00001-151","16","16","CS","Clinical Sign","CLINICAL SIGNS","NORMAL","NORMAL","","4","2018-10-12","4","Immediately after dosing","2"
"S-00001","CL","S-00001-151","17","17","CS","Clinical Sign","CLINICAL SIGNS","NORMAL","NORMAL","","4","2018-10-12","4","0.5h after treatment","3"
"S-00001","CL","S-00001-151","18","18","CS","Clinical Sign","CLINICAL SIGNS","NORMAL","NORMAL","","4","2018-10-12","4","Afternoon","4"
"S-00001","CL","S-00001-151","19","19","CS","Clinical Sign","CLINICAL SIGNS","NORMAL","NORMAL","","4","2018-10-12","4","End of the Day","5"
"S-00001","CL","S-00001-151","20","20","CS","Clinical Sign","CLINICAL SIGNS","NORMAL","NORMAL","","5","2018-10-13","5","Before Dosing","1"
"S-00001","CL","S-00001-151","21","21","CS","Clinical Sign","CLINICAL SIGNS","NORMAL","NORMAL","","5","2018-10-13","5","Immediately after dosing","2"
"S-00001","CL","S-00001-151","22","22","CS","Clinical Sign","CLINICAL SIGNS","NORMAL","NORMAL","","6","2018-10-14","6","Before Dosing","1"
"S-00001","CL","S-00001-151","23","23","CS","Clinical Sign","CLINICAL SIGNS","NORMAL","NORMAL","","6","2018-10-14","6","Immediately after dosing","2"
"S-00001","CL","S-00001-151","24","24","CS","Clinical Sign","CLINICAL SIGNS","NORMAL","NORMAL","","7","2018-10-15","7","Before Dosing","1"
"S-00001","CL","S-00001-151","25","25","CS","Clinical Sign","CLINICAL SIGNS","NORMAL","NORMAL","","7","2018-10-15","7","Afternoon","4"
"S-00001","CL","S-00001-151","26","26","CS","Clinical Sign","CLINICAL SIGNS","NORMAL","NORMAL","","7","2018-10-15","7","End of the Day","5"
"S-00001","CL","S-00001-151","27","27","CS","Clinical Sign","CLINICAL SIGNS","NORMAL","NORMAL","","8","2018-10-16","8","Before Dosing","1"
"S-00001","CL","S-00001-151","28","28","CS","Clinical Sign","CLINICAL SIGNS","NORMAL","NORMAL","","8","2018-10-16","8","Afternoon","4"
"S-00001","CL","S-00001-151","29","29","CS","Clinical Sign","CLINICAL SIGNS","NORMAL","NORMAL","","8","2018-10-16","8","End of the Day","5"
"S-00001","CL","S-00001-151","30","30","CS","Clinical Sign","CLINICAL SIGNS","NORMAL","NORMAL","","9","2018-10-17","9","Before Dosing","1"
"S-00001","CL","S-00001-151","31","31","CS","Clinical Sign","CLINICAL SIGNS","NORMAL","NORMAL","","9","2018-10-17","9","Afternoon","4"
"S-00001","CL","S-00001-151","32","32","CS","Clinical Sign","CLINICAL SIGNS","NORMAL","NORMAL","","9","2018-10-17","9","End of the Day","5"
"S-00001","CL","S-00001-151","33","33","CS","Clinical Sign","CLINICAL SIGNS","NORMAL","NORMAL","","10","2018-10-18","10","Before Dosing","1"
"S-00001","CL","S-00001-151","34","34","CS","Clinical Sign","CLINICAL SIGNS","NORMAL","NORMAL","","10","2018-10-18","10","Afternoon","4"
"S-00001","CL","S-00001-151","35","35","CS","Clinical Sign","CLINICAL SIGNS","NORMAL","NORMAL","","10","2018-10-18","10","End of the Day","5"
"S-00001","CL","S-00001-151","36","36","CS","Clinical Sign","CLINICAL SIGNS","NORMAL","NORMAL","","11","2018-10-19","11","Before Dosing","1"
"S-00001","CL","S-00001-151","37","37","CS","Clinical Sign","CLINICAL SIGNS","NORMAL","NORMAL","","11","2018-10-19","11","Afternoon","4"
"S-00001","CL","S-00001-151","38","38","CS","Clinical Sign","CLINICAL SIGNS","NORMAL","NORMAL","","11","2018-10-19","11","End of the Day","5"
"S-00001","CL","S-00001-151","39","39","CS","Clinical Sign","CLINICAL SIGNS","NORMAL","NORMAL","","12","2018-10-20","12","Before Dosing","1"
"S-00001","CL","S-00001-151","40","40","CS","Clinical Sign","CLINICAL SIGNS","NORMAL","NORMAL","","12","2018-10-20","12","Immediately after dosing","2"
"S-00001","CL","S-00001-151","41","41","CS","Clinical Sign","CLINICAL SIGNS","NORMAL","NORMAL","","13","2018-10-21","13","Before Dosing","1"
"S-00001","CL","S-00001-151","42","42","CS","Clinical Sign","CLINICAL SIGNS","NORMAL","NORMAL","","13","2018-10-21","13","Immediately after dosing","2"
"S-00001","CL","S-00001-151","43","43","CS","Clinical Sign","CLINICAL SIGNS","NORMAL","NORMAL","","14","2018-10-22","14","Before Dosing","1"
"S-00001","CL","S-00001-151","44","44","CS","Clinical Sign","CLINICAL SIGNS","NORMAL","NORMAL","","14","2018-10-22","14","Afternoon","4"
"S-00001","CL","S-00001-151","45","45","CS","Clinical Sign","CLINICAL SIGNS","NORMAL","NORMAL","","14","2018-10-22","14","End of the Day","5"
"S-00001","CL","S-00001-151","46","46","CS","Clinical Sign","CLINICAL SIGNS","NORMAL","NORMAL","","15","2018-10-23","15","Before Dosing","1"
"S-00001","CL","S-00001-151","47","47","CS","Clinical Sign","CLINICAL SIGNS","NORMAL","NORMAL","","15","2018-10-23","15","Afternoon","4"
"S-00001","CL","S-00001-151","48","48","CS","Clinical Sign","CLINICAL SIGNS","NORMAL","NORMAL","","15","2018-10-23","15","End of the Day","5"
"S-00001","CL","S-00001-151","49","49","CS","Clinical Sign","CLINICAL SIGNS","NORMAL","NORMAL","","16","2018-10-24","16","Before Dosing","1"
"S-00001","CL","S-00001-151","50","50","CS","Clinical Sign","CLINICAL SIGNS","NORMAL","NORMAL","","16","2018-10-24","16","Afternoon","4"
"S-00001","CL","S-00001-151","51","51","CS","Clinical Sign","CLINICAL SIGNS","NORMAL","NORMAL","","16","2018-10-24","16","End of the Day","5"
"S-00001","CL","S-00001-151","52","52","CS","Clinical Sign","CLINICAL SIGNS","NORMAL","NORMAL","","17","2018-10-25","17","Before Dosing","1"
"S-00001","CL","S-00001-151","53","53","CS","Clinical Sign","CLINICAL SIGNS","NORMAL","NORMAL","","17","2018-10-25","17","Afternoon","4"
"S-00001","CL","S-00001-151","54","54","CS","Clinical Sign","CLINICAL SIGNS","NORMAL","NORMAL","","17","2018-10-25","17","End of the Day","5"
"S-00001","CL","S-00001-151","55","55","CS","Clinical Sign","CLINICAL SIGNS","NORMAL","NORMAL","","18","2018-10-26","18","Before Dosing","1"
"S-00001","CL","S-00001-151","56","56","CS","Clinical Sign","CLINICAL SIGNS","NORMAL","NORMAL","","18","2018-10-26","18","Afternoon","4"
"S-00001","CL","S-00001-151","57","57","CS","Clinical Sign","CLINICAL SIGNS","NORMAL","NORMAL","","18","2018-10-26","18","End of the Day","5"
"S-00001","CL","S-00001-151","58","58","CS","Clinical Sign","CLINICAL SIGNS","NORMAL","NORMAL","","19","2018-10-27","19","Before Dosing","1"
"S-00001","CL","S-00001-151","59","59","CS","Clinical Sign","CLINICAL SIGNS","NORMAL","NORMAL","","19","2018-10-27","19","Immediately after dosing","2"
"S-00001","CL","S-00001-151","60","60","CS","Clinical Sign","CLINICAL SIGNS","NORMAL","NORMAL","","20","2018-10-28","20","Before Dosing","1"
"S-00001","CL","S-00001-151","61","61","CS","Clinical Sign","CLINICAL SIGNS","NORMAL","NORMAL","","20","2018-10-28","20","Immediately after dosing","2"
"S-00001","CL","S-00001-151","62","62","CS","Clinical Sign","CLINICAL SIGNS","NORMAL","NORMAL","","21","2018-10-29","21","Before Dosing","1"
"S-00001","CL","S-00001-151","63","63","CS","Clinical Sign","CLINICAL SIGNS","NORMAL","NORMAL","","21","2018-10-29","21","Afternoon","4"
"S-00001","CL","S-00001-151","64","64","CS","Clinical Sign","CLINICAL SIGNS","NORMAL","NORMAL","","21","2018-10-29","21","End of the Day","5"
"S-00001","CL","S-00001-151","65","65","CS","Clinical Sign","CLINICAL SIGNS","NORMAL","NORMAL","","22","2018-10-30","22","Before Dosing","1"
"S-00001","CL","S-00001-151","66","66","CS","Clinical Sign","CLINICAL SIGNS","NORMAL","NORMAL","","22","2018-10-30","22","Afternoon","4"
"S-00001","CL","S-00001-151","67","67","CS","Clinical Sign","CLINICAL SIGNS","NORMAL","NORMAL","","22","2018-10-30","22","End of the Day","5"
"S-00001","CL","S-00001-151","68","68","CS","Clinical Sign","CLINICAL SIGNS","NORMAL","NORMAL","","23","2018-10-31","23","Before Dosing","1"
"S-00001","CL","S-00001-151","69","69","CS","Clinical Sign","CLINICAL SIGNS","NORMAL","NORMAL","","23","2018-10-31","23","Afternoon","4"
"S-00001","CL","S-00001-151","70","70","CS","Clinical Sign","CLINICAL SIGNS","NORMAL","NORMAL","","23","2018-10-31","23","End of the Day","5"
"S-00001","CL","S-00001-151","71","71","CS","Clinical Sign","CLINICAL SIGNS","NORMAL","NORMAL","","24","2018-11-01","24","Before Dosing","1"
"S-00001","CL","S-00001-151","72","72","CS","Clinical Sign","CLINICAL SIGNS","NORMAL","NORMAL","","24","2018-11-01","24","Afternoon","4"
"S-00001","CL","S-00001-151","73","73","CS","Clinical Sign","CLINICAL SIGNS","NORMAL","NORMAL","","24","2018-11-01","24","End of the Day","5"
"S-00001","CL","S-00001-151","74","74","CS","Clinical Sign","CLINICAL SIGNS","NORMAL","NORMAL","","25","2018-11-02","25","Before Dosing","1"
"S-00001","CL","S-00001-151","75","75","CS","Clinical Sign","CLINICAL SIGNS","NORMAL","NORMAL","","25","2018-11-02","25","Afternoon","4"
"S-00001","CL","S-00001-151","76","76","CS","Clinical Sign","CLINICAL SIGNS","NORMAL","NORMAL","","25","2018-11-02","25","End of the Day","5"
"S-00001","CL","S-00001-151","77","77","CS","Clinical Sign","CLINICAL SIGNS","NORMAL","NORMAL","","26","2018-11-03","26","Before Dosing","1"
"S-00001","CL","S-00001-151","78","78","CS","Clinical Sign","CLINICAL SIGNS","NORMAL","NORMAL","","26","2018-11-03","26","Immediately after dosing","2"
"S-00001","CL","S-00001-151","79","79","CS","Clinical Sign","CLINICAL SIGNS","NORMAL","NORMAL","","27","2018-11-04","27","Before Dosing","1"
"S-00001","CL","S-00001-151","80","80","CS","Clinical Sign","CLINICAL SIGNS","NORMAL","NORMAL","","27","2018-11-04","27","Immediately after dosing","2"
"S-00001","CL","S-00001-151","81","81","CS","Clinical Sign","CLINICAL SIGNS","NORMAL","NORMAL","","28","2018-11-05","28","Before Dosing","1"
"S-00001","CL","S-00001-151","82","82","CS","Clinical Sign","CLINICAL SIGNS","NORMAL","NORMAL","","28","2018-11-05","28","Afternoon","4"
"S-00001","CL","S-00001-151","83","83","CS","Clinical Sign","CLINICAL SIGNS","NORMAL","NORMAL","","28","2018-11-05","28","End of the Day","5"
"S-00001","CL","S-00001-151","84","84","CS","Clinical Sign","CLINICAL SIGNS","NORMAL","NORMAL","","29","2018-11-06","29","Before Dosing","1"
"S-00001","CL","S-00001-151","85","85","CS","Clinical Sign","CLINICAL SIGNS","NORMAL","NORMAL","","29","2018-11-06","29","Afternoon","4"
"S-00001","CL","S-00001-151","86","86","CS","Clinical Sign","CLINICAL SIGNS","NORMAL","NORMAL","","29","2018-11-06","29","End of the Day","5"
"S-00001","CL","S-00001-151","87","87","CS","Clinical Sign","CLINICAL SIGNS","NORMAL","NORMAL","","30","2018-11-07","30","Before Dosing","1"
"S-00001","CL","S-00001-151","88","88","CS","Clinical Sign","CLINICAL SIGNS","NORMAL","NORMAL","","30","2018-11-07","30","Afternoon","4"
"S-00001","CL","S-00001-151","89","89","CS","Clinical Sign","CLINICAL SIGNS","NORMAL","NORMAL","","30","2018-11-07","30","End of the Day","5"
"S-00001","CL","S-00001-151","90","90","CS","Clinical Sign","CLINICAL SIGNS","NORMAL","NORMAL","","31","2018-11-08","31","Before Dosing","1"
"S-00001","CL","S-00001-151","91","91","CS","Clinical Sign","CLINICAL SIGNS","NORMAL","NORMAL","","31","2018-11-08","31","Afternoon","4"
"S-00001","CL","S-00001-151","92","92","CS","Clinical Sign","CLINICAL SIGNS","NORMAL","NORMAL","","31","2018-11-08","31","End of the Day","5"
"S-00001","CL","S-00001-151","93","93","CS","Clinical Sign","CLINICAL SIGNS","NORMAL","NORMAL","","32","2018-11-09","32","Before Dosing","1"
"S-00001","CL","S-00001-151","94","94","CS","Clinical Sign","CLINICAL SIGNS","NORMAL","NORMAL","","32","2018-11-09","32","Afternoon","4"
"S-00001","CL","S-00001-151","95","95","CS","Clinical Sign","CLINICAL SIGNS","NORMAL","NORMAL","","32","2018-11-09","32","End of the Day","5"
"S-00001","CL","S-00001-151","96","96","CS","Clinical Sign","CLINICAL SIGNS","NORMAL","NORMAL","","33","2018-11-10","33","Before Dosing","1"
"S-00001","CL","S-00001-151","97","97","CS","Clinical Sign","CLINICAL SIGNS","NORMAL","NORMAL","","33","2018-11-10","33","Immediately after dosing","2"
"S-00001","CL","S-00001-151","98","98","CS","Clinical Sign","CLINICAL SIGNS","NORMAL","NORMAL","","34","2018-11-11","34","Before Dosing","1"
"S-00001","CL","S-00001-151","99","99","CS","Clinical Sign","CLINICAL SIGNS","NORMAL","NORMAL","","34","2018-11-11","34","Immediately after dosing","2"
"S-00001","CL","S-00001-151","100","100","CS","Clinical Sign","CLINICAL SIGNS","NORMAL","NORMAL","","35","2018-11-12","35","Before Dosing","1"
"S-00001","CL","S-00001-151","101","101","CS","Clinical Sign","CLINICAL SIGNS","NORMAL","NORMAL","","35","2018-11-12","35","Afternoon","4"
"S-00001","CL","S-00001-151","102","102","CS","Clinical Sign","CLINICAL SIGNS","NORMAL","NORMAL","","35","2018-11-12","35","End of the Day","5"
"S-00001","CL","S-00001-151","103","103","CS","Clinical Sign","CLINICAL SIGNS","NORMAL","NORMAL","","36","2018-11-13","36","Before Dosing","1"
"S-00001","CL","S-00001-151","104","104","CS","Clinical Sign","CLINICAL SIGNS","NORMAL","NORMAL","","36","2018-11-13","36","Afternoon","4"
"S-00001","CL","S-00001-151","105","105","CS","Clinical Sign","CLINICAL SIGNS","NORMAL","NORMAL","","36","2018-11-13","36","End of the Day","5"
"S-00001","CL","S-00001-151","106","106","CS","Clinical Sign","CLINICAL SIGNS","NORMAL","NORMAL","","37","2018-11-14","37","Before Dosing","1"
"S-00001","CL","S-00001-151","107","107","CS","Clinical Sign","CLINICAL SIGNS","NORMAL","NORMAL","","37","2018-11-14","37","Afternoon","4"
"S-00001","CL","S-00001-151","108","108","CS","Clinical Sign","CLINICAL SIGNS","NORMAL","NORMAL","","37","2018-11-14","37","End of the Day","5"
"S-00001","CL","S-00001-151","109","109","CS","Clinical Sign","CLINICAL SIGNS","NORMAL","NORMAL","","38","2018-11-15","38","Before Dosing","1"
"S-00001","CL","S-00001-151","110","110","CS","Clinical Sign","CLINICAL SIGNS","NORMAL","NORMAL","","38","2018-11-15","38","Afternoon","4"
"S-00001","CL","S-00001-151","111","111","CS","Clinical Sign","CLINICAL SIGNS","NORMAL","NORMAL","","38","2018-11-15","38","End of the Day","5"
"S-00001","CL","S-00001-151","112","112","CS","Clinical Sign","CLINICAL SIGNS","NORMAL","NORMAL","","39","2018-11-16","39","Before Dosing","1"
"S-00001","CL","S-00001-151","113","113","CS","Clinical Sign","CLINICAL SIGNS","NORMAL","NORMAL","","39","2018-11-16","39","Afternoon","4"
"S-00001","CL","S-00001-151","114","114","CS","Clinical Sign","CLINICAL SIGNS","NORMAL","NORMAL","","39","2018-11-16","39","End of the Day","5"
"S-00001","CL","S-00001-151","115","115","CS","Clinical Sign","CLINICAL SIGNS","NORMAL","NORMAL","","40","2018-11-17","40","Before Dosing","1"
"S-00001","CL","S-00001-151","116","116","CS","Clinical Sign","CLINICAL SIGNS","NORMAL","NORMAL","","40","2018-11-17","40","Immediately after dosing","2"
"S-00001","CL","S-00001-151","117","117","CS","Clinical Sign","CLINICAL SIGNS","NORMAL","NORMAL","","41","2018-11-18","41","Before Dosing","1"
"S-00001","CL","S-00001-151","118","118","CS","Clinical Sign","CLINICAL SIGNS","NORMAL","NORMAL","","41","2018-11-18","41","Immediately after dosing","2"
"S-00001","CL","S-00001-151","119","119","CS","Clinical Sign","CLINICAL SIGNS","NORMAL","NORMAL","","42","2018-11-19","42","Before Dosing","1"
"S-00001","CL","S-00001-151","120","120","CS","Clinical Sign","CLINICAL SIGNS","NORMAL","NORMAL","","42","2018-11-19","42","Afternoon","4"
"S-00001","CL","S-00001-151","121","121","CS","Clinical Sign","CLINICAL SIGNS","NORMAL","NORMAL","","42","2018-11-19","42","End of the Day","5"
"S-00001","CL","S-00001-151","122","122","CS","Clinical Sign","CLINICAL SIGNS","NORMAL","NORMAL","","43","2018-11-20","43","Before Dosing","1"
"S-00001","CL","S-00001-151","123","123","CS","Clinical Sign","CLINICAL SIGNS","NORMAL","NORMAL","","43","2018-11-20","43","Afternoon","4"
"S-00001","CL","S-00001-151","124","124","CS","Clinical Sign","CLINICAL SIGNS","NORMAL","NORMAL","","43","2018-11-20","43","End of the Day","5"
"S-00001","CL","S-00001-151","125","125","CS","Clinical Sign","CLINICAL SIGNS","NORMAL","NORMAL","","44","2018-11-21","44","Before Dosing","1"
"S-00001","CL","S-00001-151","126","126","CS","Clinical Sign","CLINICAL SIGNS","NORMAL","NORMAL","","44","2018-11-21","44","Afternoon","4"
"S-00001","CL","S-00001-151","127","127","CS","Clinical Sign","CLINICAL SIGNS","NORMAL","NORMAL","","44","2018-11-21","44","End of the Day","5"
"S-00001","CL","S-00001-151","128","128","CS","Clinical Sign","CLINICAL SIGNS","NORMAL","NORMAL","","45","2018-11-22","45","Before Dosing","1"
"S-00001","CL","S-00001-151","129","129","CS","Clinical Sign","CLINICAL SIGNS","NORMAL","NORMAL","","45","2018-11-22","45","Afternoon","4"
"S-00001","CL","S-00001-151","130","130","CS","Clinical Sign","CLINICAL SIGNS","NORMAL","NORMAL","","45","2018-11-22","45","End of the Day","5"
"S-00001","CL","S-00001-151","131","131","CS","Clinical Sign","CLINICAL SIGNS","NORMAL","NORMAL","","46","2018-11-23","46","Before Dosing","1"
"S-00001","CL","S-00001-152","132","132","CS","Clinical Sign","CLINICAL SIGNS","NORMAL","NORMAL","","1","2018-10-09","1","Immediately after dosing","2"
"S-00001","CL","S-00001-152","133","133","CS","Clinical Sign","CLINICAL SIGNS","NORMAL","NORMAL","","1","2018-10-09","1","0.5h after treatment","3"
"S-00001","CL","S-00001-152","134","134","CS","Clinical Sign","CLINICAL SIGNS","NORMAL","NORMAL","","1","2018-10-09","1","Afternoon","4"
"S-00001","CL","S-00001-152","135","135","CS","Clinical Sign","CLINICAL SIGNS","NORMAL","NORMAL","","1","2018-10-09","1","End of the Day","5"
"S-00001","CL","S-00001-152","136","136","CS","Clinical Sign","CLINICAL SIGNS","NORMAL","NORMAL","","2","2018-10-10","2","Before Dosing","1"
"S-00001","CL","S-00001-152","137","137","CS","Clinical Sign","CLINICAL SIGNS","NORMAL","NORMAL","","2","2018-10-10","2","Immediately after dosing","2"
"S-00001","CL","S-00001-152","138","138","CS","Clinical Sign","CLINICAL SIGNS","NORMAL","NORMAL","","2","2018-10-10","2","0.5h after treatment","3"
"S-00001","CL","S-00001-152","139","139","CS","Clinical Sign","CLINICAL SIGNS","NORMAL","NORMAL","","2","2018-10-10","2","Afternoon","4"
"S-00001","CL","S-00001-152","140","140","CS","Clinical Sign","CLINICAL SIGNS","NORMAL","NORMAL","","2","2018-10-10","2","End of the Day","5"
"S-00001","CL","S-00001-152","141","141","CS","Clinical Sign","CLINICAL SIGNS","NORMAL","NORMAL","","3","2018-10-11","3","Before Dosing","1"
"S-00001","CL","S-00001-152","142","142","CS","Clinical Sign","CLINICAL SIGNS","NORMAL","NORMAL","","3","2018-10-11","3","Immediately after dosing","2"
"S-00001","CL","S-00001-152","143","143","CS","Clinical Sign","CLINICAL SIGNS","NORMAL","NORMAL","","3","2018-10-11","3","0.5h after treatment","3"
"S-00001","CL","S-00001-152","144","144","CS","Clinical Sign","CLINICAL SIGNS","NORMAL","NORMAL","","3","2018-10-11","3","Afternoon","4"
"S-00001","CL","S-00001-152","145","145","CS","Clinical Sign","CLINICAL SIGNS","NORMAL","NORMAL","","3","2018-10-11","3","End of the Day","5"
"S-00001","CL","S-00001-152","146","146","CS","Clinical Sign","CLINICAL SIGNS","NORMAL","NORMAL","","4","2018-10-12","4","Before Dosing","1"
"S-00001","CL","S-00001-152","147","147","CS","Clinical Sign","CLINICAL SIGNS","NORMAL","NORMAL","","4","2018-10-12","4","Immediately after dosing","2"
"S-00001","CL","S-00001-152","148","148","CS","Clinical Sign","CLINICAL SIGNS","NORMAL","NORMAL","","4","2018-10-12","4","0.5h after treatment","3"
"S-00001","CL","S-00001-152","149","149","CS","Clinical Sign","CLINICAL SIGNS","NORMAL","NORMAL","","4","2018-10-12","4","Afternoon","4"
"S-00001","CL","S-00001-152","150","150","CS","Clinical Sign","CLINICAL SIGNS","NORMAL","NORMAL","","4","2018-10-12","4","End of the Day","5"
"S-00001","CL","S-00001-152","151","151","CS","Clinical Sign","CLINICAL SIGNS","NORMAL","NORMAL","","5","2018-10-13","5","Before Dosing","1"
"S-00001","CL","S-00001-152","152","152","CS","Clinical Sign","CLINICAL SIGNS","NORMAL","NORMAL","","5","2018-10-13","5","Immediately after dosing","2"
"S-00001","CL","S-00001-152","153","153","CS","Clinical Sign","CLINICAL SIGNS","NORMAL","NORMAL","","6","2018-10-14","6","Before Dosing","1"
"S-00001","CL","S-00001-152","154","154","CS","Clinical Sign","CLINICAL SIGNS","NORMAL","NORMAL","","6","2018-10-14","6","Immediately after dosing","2"
"S-00001","CL","S-00001-152","155","155","CS","Clinical Sign","CLINICAL SIGNS","NORMAL","NORMAL","","7","2018-10-15","7","Before Dosing","1"
"S-00001","CL","S-00001-152","156","156","CS","Clinical Sign","CLINICAL SIGNS","NORMAL","NORMAL","","7","2018-10-15","7","Afternoon","4"
"S-00001","CL","S-00001-152","157","157","CS","Clinical Sign","CLINICAL SIGNS","NORMAL","NORMAL","","7","2018-10-15","7","End of the Day","5"
"S-00001","CL","S-00001-152","158","158","CS","Clinical Sign","CLINICAL SIGNS","NORMAL","NORMAL","","8","2018-10-16","8","Before Dosing","1"
"S-00001","CL","S-00001-152","159","159","CS","Clinical Sign","CLINICAL SIGNS","NORMAL","NORMAL","","8","2018-10-16","8","Afternoon","4"
"S-00001","CL","S-00001-152","160","160","CS","Clinical Sign","CLINICAL SIGNS","NORMAL","NORMAL","","8","2018-10-16","8","End of the Day","5"
"S-00001","CL","S-00001-152","161","161","CS","Clinical Sign","CLINICAL SIGNS","NORMAL","NORMAL","","9","2018-10-17","9","Before Dosing","1"
"S-00001","CL","S-00001-152","162","162","CS","Clinical Sign","CLINICAL SIGNS","NORMAL","NORMAL","","9","2018-10-17","9","Afternoon","4"
"S-00001","CL","S-00001-152","163","163","CS","Clinical Sign","CLINICAL SIGNS","NORMAL","NORMAL","","9","2018-10-17","9","End of the Day","5"
"S-00001","CL","S-00001-152","164","164","CS","Clinical Sign","CLINICAL SIGNS","NORMAL","NORMAL","","10","2018-10-18","10","Before Dosing","1"
"S-00001","CL","S-00001-152","165","165","CS","Clinical Sign","CLINICAL SIGNS","NORMAL","NORMAL","","10","2018-10-18","10","Afternoon","4"
"S-00001","CL","S-00001-152","166","166","CS","Clinical Sign","CLINICAL SIGNS","NORMAL","NORMAL","","10","2018-10-18","10","End of the Day","5"
"S-00001","CL","S-00001-152","167","167","CS","Clinical Sign","CLINICAL SIGNS","NORMAL","NORMAL","","11","2018-10-19","11","Before Dosing","1"
"S-00001","CL","S-00001-152","168","168","CS","Clinical Sign","CLINICAL SIGNS","NORMAL","NORMAL","","11","2018-10-19","11","Afternoon","4"
"S-00001","CL","S-00001-152","169","169","CS","Clinical Sign","CLINICAL SIGNS","NORMAL","NORMAL","","11","2018-10-19","11","End of the Day","5"
"S-00001","CL","S-00001-152","170","170","CS","Clinical Sign","CLINICAL SIGNS","NORMAL","NORMAL","","12","2018-10-20","12","Before Dosing","1"
"S-00001","CL","S-00001-152","171","171","CS","Clinical Sign","CLINICAL SIGNS","NORMAL","NORMAL","","12","2018-10-20","12","Immediately after dosing","2"
"S-00001","CL","S-00001-152","172","172","CS","Clinical Sign","CLINICAL SIGNS","NORMAL","NORMAL","","13","2018-10-21","13","Before Dosing","1"
"S-00001","CL","S-00001-152","173","173","CS","Clinical Sign","CLINICAL SIGNS","NORMAL","NORMAL","","13","2018-10-21","13","Immediately after dosing","2"
"S-00001","CL","S-00001-152","174","174","CS","Clinical Sign","CLINICAL SIGNS","NORMAL","NORMAL","","14","2018-10-22","14","Before Dosing","1"
"S-00001","CL","S-00001-152","175","175","CS","Clinical Sign","CLINICAL SIGNS","NORMAL","NORMAL","","14","2018-10-22","14","Afternoon","4"
"S-00001","CL","S-00001-152","176","176","CS","Clinical Sign","CLINICAL SIGNS","NORMAL","NORMAL","","14","2018-10-22","14","End of the Day","5"
"S-00001","CL","S-00001-152","177","177","CS","Clinical Sign","CLINICAL SIGNS","NORMAL","NORMAL","","15","2018-10-23","15","Before Dosing","1"
"S-00001","CL","S-00001-152","178","178","CS","Clinical Sign","CLINICAL SIGNS","NORMAL","NORMAL","","15","2018-10-23","15","Afternoon","4"
"S-00001","CL","S-00001-152","179","179","CS","Clinical Sign","CLINICAL SIGNS","NORMAL","NORMAL","","15","2018-10-23","15","End of the Day","5"
"S-00001","CL","S-00001-152","180","180","CS","Clinical Sign","CLINICAL SIGNS","NORMAL","NORMAL","","16","2018-10-24","16","Before Dosing","1"
"S-00001","CL","S-00001-152","181","181","CS","Clinical Sign","CLINICAL SIGNS","NORMAL","NORMAL","","16","2018-10-24","16","Afternoon","4"
"S-00001","CL","S-00001-152","182","182","CS","Clinical Sign","CLINICAL SIGNS","NORMAL","NORMAL","","16","2018-10-24","16","End of the Day","5"
"S-00001","CL","S-00001-152","183","183","CS","Clinical Sign","CLINICAL SIGNS","NORMAL","NORMAL","","17","2018-10-25","17","Before Dosing","1"
"S-00001","CL","S-00001-152","184","184","CS","Clinical Sign","CLINICAL SIGNS","NORMAL","NORMAL","","17","2018-10-25","17","Afternoon","4"
"S-00001","CL","S-00001-152","185","185","CS","Clinical Sign","CLINICAL SIGNS","NORMAL","NORMAL","","17","2018-10-25","17","End of the Day","5"
"S-00001","CL","S-00001-152","186","186","CS","Clinical Sign","CLINICAL SIGNS","NORMAL","NORMAL","","18","2018-10-26","18","Before Dosing","1"
"S-00001","CL","S-00001-152","187","187","CS","Clinical Sign","CLINICAL SIGNS","NORMAL","NORMAL","","18","2018-10-26","18","Afternoon","4"
"S-00001","CL","S-00001-152","188","188","CS","Clinical Sign","CLINICAL SIGNS","NORMAL","NORMAL","","18","2018-10-26","18","End of the Day","5"
"S-00001","CL","S-00001-152","189","189","CS","Clinical Sign","CLINICAL SIGNS","NORMAL","NORMAL","","19","2018-10-27","19","Before Dosing","1"
"S-00001","CL","S-00001-152","190","190","CS","Clinical Sign","CLINICAL SIGNS","NORMAL","NORMAL","","19","2018-10-27","19","Immediately after dosing","2"
"S-00001","CL","S-00001-152","191","191","CS","Clinical Sign","CLINICAL SIGNS","NORMAL","NORMAL","","20","2018-10-28","20","Before Dosing","1"
"S-00001","CL","S-00001-152","192","192","CS","Clinical Sign","CLINICAL SIGNS","NORMAL","NORMAL","","20","2018-10-28","20","Immediately after dosing","2"
"S-00001","CL","S-00001-152","193","193","CS","Clinical Sign","CLINICAL SIGNS","NORMAL","NORMAL","","21","2018-10-29","21","Before Dosing","1"
"S-00001","CL","S-00001-152","194","194","CS","Clinical Sign","CLINICAL SIGNS","NORMAL","NORMAL","","21","2018-10-29","21","Afternoon","4"
"S-00001","CL","S-00001-152","195","195","CS","Clinical Sign","CLINICAL SIGNS","NORMAL","NORMAL","","21","2018-10-29","21","End of the Day","5"
"S-00001","CL","S-00001-152","196","196","CS","Clinical Sign","CLINICAL SIGNS","NORMAL","NORMAL","","22","2018-10-30","22","Before Dosing","1"
"S-00001","CL","S-00001-152","197","197","CS","Clinical Sign","CLINICAL SIGNS","NORMAL","NORMAL","","22","2018-10-30","22","Afternoon","4"
"S-00001","CL","S-00001-152","198","198","CS","Clinical Sign","CLINICAL SIGNS","NORMAL","NORMAL","","22","2018-10-30","22","End of the Day","5"
"S-00001","CL","S-00001-152","199","199","CS","Clinical Sign","CLINICAL SIGNS","NORMAL","NORMAL","","23","2018-10-31","23","Before Dosing","1"
"S-00001","CL","S-00001-152","200","200","CS","Clinical Sign","CLINICAL SIGNS","NORMAL","NORMAL","","23","2018-10-31","23","Afternoon","4"
"S-00001","CL","S-00001-152","201","201","CS","Clinical Sign","CLINICAL SIGNS","NORMAL","NORMAL","","23","2018-10-31","23","End of the Day","5"
"S-00001","CL","S-00001-152","202","202","CS","Clinical Sign","CLINICAL SIGNS","NORMAL","NORMAL","","24","2018-11-01","24","Before Dosing","1"
"S-00001","CL","S-00001-152","203","203","CS","Clinical Sign","CLINICAL SIGNS","NORMAL","NORMAL","","24","2018-11-01","24","Afternoon","4"
"S-00001","CL","S-00001-152","204","204","CS","Clinical Sign","CLINICAL SIGNS","NORMAL","NORMAL","","24","2018-11-01","24","End of the Day","5"
"S-00001","CL","S-00001-152","205","205","CS","Clinical Sign","CLINICAL SIGNS","NORMAL","NORMAL","","25","2018-11-02","25","Before Dosing","1"
"S-00001","CL","S-00001-152","206","206","CS","Clinical Sign","CLINICAL SIGNS","NORMAL","NORMAL","","25","2018-11-02","25","Afternoon","4"
"S-00001","CL","S-00001-152","207","207","CS","Clinical Sign","CLINICAL SIGNS","NORMAL","NORMAL","","25","2018-11-02","25","End of the Day","5"
"S-00001","CL","S-00001-152","208","208","CS","Clinical Sign","CLINICAL SIGNS","NORMAL","NORMAL","","26","2018-11-03","26","Before Dosing","1"
"S-00001","CL","S-00001-152","209","209","CS","Clinical Sign","CLINICAL SIGNS","NORMAL","NORMAL","","26","2018-11-03","26","Immediately after dosing","2"
"S-00001","CL","S-00001-152","210","210","CS","Clinical Sign","CLINICAL SIGNS","NORMAL","NORMAL","","27","2018-11-04","27","Before Dosing","1"
"S-00001","CL","S-00001-152","211","211","CS","Clinical Sign","CLINICAL SIGNS","NORMAL","NORMAL","","27","2018-11-04","27","Immediately after dosing","2"
"S-00001","CL","S-00001-152","212","212","CS","Clinical Sign","CLINICAL SIGNS","NORMAL","NORMAL","","28","2018-11-05","28","Before Dosing","1"
"S-00001","CL","S-00001-152","213","213","CS","Clinical Sign","CLINICAL SIGNS","NORMAL","NORMAL","","28","2018-11-05","28","Afternoon","4"
"S-00001","CL","S-00001-152","214","214","CS","Clinical Sign","CLINICAL SIGNS","NORMAL","NORMAL","","28","2018-11-05","28","End of the Day","5"
"S-00001","CL","S-00001-152","215","215","CS","Clinical Sign","CLINICAL SIGNS","NORMAL","NORMAL","","29","2018-11-06","29","Before Dosing","1"
"S-00001","CL","S-00001-152","216","216","CS","Clinical Sign","CLINICAL SIGNS","NORMAL","NORMAL","","29","2018-11-06","29","Afternoon","4"
"S-00001","CL","S-00001-152","217","217","CS","Clinical Sign","CLINICAL SIGNS","NORMAL","NORMAL","","29","2018-11-06","29","End of the Day","5"
"S-00001","CL","S-00001-152","218","218","CS","Clinical Sign","CLINICAL SIGNS","NORMAL","NORMAL","","30","2018-11-07","30","Before Dosing","1"
"S-00001","CL","S-00001-152","219","219","CS","Clinical Sign","CLINICAL SIGNS","NORMAL","NORMAL","","30","2018-11-07","30","Afternoon","4"
"S-00001","CL","S-00001-152","220","220","CS","Clinical Sign","CLINICAL SIGNS","NORMAL","NORMAL","","30","2018-11-07","30","End of the Day","5"
"S-00001","CL","S-00001-152","221","221","CS","Clinical Sign","CLINICAL SIGNS","NORMAL","NORMAL","","31","2018-11-08","31","Before Dosing","1"
"S-00001","CL","S-00001-152","222","222","CS","Clinical Sign","CLINICAL SIGNS","NORMAL","NORMAL","","31","2018-11-08","31","Afternoon","4"
"S-00001","CL","S-00001-152","223","223","CS","Clinical Sign","CLINICAL SIGNS","NORMAL","NORMAL","","31","2018-11-08","31","End of the Day","5"
"S-00001","CL","S-00001-152","224","224","CS","Clinical Sign","CLINICAL SIGNS","NORMAL","NORMAL","","32","2018-11-09","32","Before Dosing","1"
"S-00001","CL","S-00001-152","225","225","CS","Clinical Sign","CLINICAL SIGNS","NORMAL","NORMAL","","32","2018-11-09","32","Afternoon","4"
"S-00001","CL","S-00001-152","226","226","CS","Clinical Sign","CLINICAL SIGNS","NORMAL","NORMAL","","32","2018-11-09","32","End of the Day","5"
"S-00001","CL","S-00001-152","227","227","CS","Clinical Sign","CLINICAL SIGNS","NORMAL","NORMAL","","33","2018-11-10","33","Before Dosing","1"
"S-00001","CL","S-00001-152","228","228","CS","Clinical Sign","CLINICAL SIGNS","NORMAL","NORMAL","","33","2018-11-10","33","Immediately after dosing","2"
"S-00001","CL","S-00001-152","229","229","CS","Clinical Sign","CLINICAL SIGNS","NORMAL","NORMAL","","34","2018-11-11","34","Before Dosing","1"
"S-00001","CL","S-00001-152","230","230","CS","Clinical Sign","CLINICAL SIGNS","NORMAL","NORMAL","","34","2018-11-11","34","Immediately after dosing","2"
"S-00001","CL","S-00001-152","231","231","CS","Clinical Sign","CLINICAL SIGNS","NORMAL","NORMAL","","35","2018-11-12","35","Before Dosing","1"
"S-00001","CL","S-00001-152","232","232","CS","Clinical Sign","CLINICAL SIGNS","NORMAL","NORMAL","","35","2018-11-12","35","Afternoon","4"
"S-00001","CL","S-00001-152","233","233","CS","Clinical Sign","CLINICAL SIGNS","NORMAL","NORMAL","","35","2018-11-12","35","End of the Day","5"
"S-00001","CL","S-00001-152","234","234","CS","Clinical Sign","CLINICAL SIGNS","NORMAL","NORMAL","","36","2018-11-13","36","Before Dosing","1"
"S-00001","CL","S-00001-152","235","235","CS","Clinical Sign","CLINICAL SIGNS","NORMAL","NORMAL","","36","2018-11-13","36","Afternoon","4"
"S-00001","CL","S-00001-152","236","236","CS","Clinical Sign","CLINICAL SIGNS","NORMAL","NORMAL","","36","2018-11-13","36","End of the Day","5"
"S-00001","CL","S-00001-152","237","237","CS","Clinical Sign","CLINICAL SIGNS","NORMAL","NORMAL","","37","2018-11-14","37","Before Dosing","1"
"S-00001","CL","S-00001-152","238","238","CS","Clinical Sign","CLINICAL SIGNS","NORMAL","NORMAL","","37","2018-11-14","37","Afternoon","4"
"S-00001","CL","S-00001-152","239","239","CS","Clinical Sign","CLINICAL SIGNS","NORMAL","NORMAL","","37","2018-11-14","37","End of the Day","5"
"S-00001","CL","S-00001-152","240","240","CS","Clinical Sign","CLINICAL SIGNS","NORMAL","NORMAL","","38","2018-11-15","38","Before Dosing","1"
"S-00001","CL","S-00001-152","241","241","CS","Clinical Sign","CLINICAL SIGNS","NORMAL","NORMAL","","38","2018-11-15","38","Afternoon","4"
"S-00001","CL","S-00001-152","242","242","CS","Clinical Sign","CLINICAL SIGNS","NORMAL","NORMAL","","38","2018-11-15","38","End of the Day","5"
"S-00001","CL","S-00001-152","243","243","CS","Clinical Sign","CLINICAL SIGNS","NORMAL","NORMAL","","39","2018-11-16","39","Before Dosing","1"
"S-00001","CL","S-00001-152","244","244","CS","Clinical Sign","CLINICAL SIGNS","NORMAL","NORMAL","","39","2018-11-16","39","Afternoon","4"
"S-00001","CL","S-00001-152","245","245","CS","Clinical Sign","CLINICAL SIGNS","NORMAL","NORMAL","","39","2018-11-16","39","End of the Day","5"
"S-00001","CL","S-00001-152","246","246","CS","Clinical Sign","CLINICAL SIGNS","NORMAL","NORMAL","","40","2018-11-17","40","Before Dosing","1"
"S-00001","CL","S-00001-152","247","247","CS","Clinical Sign","CLINICAL SIGNS","NORMAL","NORMAL","","40","2018-11-17","40","Immediately after dosing","2"
"S-00001","CL","S-00001-152","248","248","CS","Clinical Sign","CLINICAL SIGNS","NORMAL","NORMAL","","41","2018-11-18","41","Before Dosing","1"
"S-00001","CL","S-00001-152","249","249","CS","Clinical Sign","CLINICAL SIGNS","NORMAL","NORMAL","","41","2018-11-18","41","Immediately after dosing","2"
"S-00001","CL","S-00001-152","250","250","CS","Clinical Sign","CLINICAL SIGNS","NORMAL","NORMAL","","42","2018-11-19","42","Before Dosing","1"
"S-00001","CL","S-00001-152","251","251","CS","Clinical Sign","CLINICAL SIGNS","NORMAL","NORMAL","","42","2018-11-19","42","Afternoon","4"
"S-00001","CL","S-00001-152","252","252","CS","Clinical Sign","CLINICAL SIGNS","NORMAL","NORMAL","","42","2018-11-19","42","End of the Day","5"
"S-00001","CL","S-00001-152","253","253","CS","Clinical Sign","CLINICAL SIGNS","NORMAL","NORMAL","","43","2018-11-20","43","Before Dosing","1"
"S-00001","CL","S-00001-152","254","254","CS","Clinical Sign","CLINICAL SIGNS","NORMAL","NORMAL","","43","2018-11-20","43","Afternoon","4"
"S-00001","CL","S-00001-152","255","255","CS","Clinical Sign","CLINICAL SIGNS","NORMAL","NORMAL","","43","2018-11-20","43","End of the Day","5"
"S-00001","CL","S-00001-152","256","256","CS","Clinical Sign","CLINICAL SIGNS","NORMAL","NORMAL","","44","2018-11-21","44","Before Dosing","1"
"S-00001","CL","S-00001-152","257","257","CS","Clinical Sign","CLINICAL SIGNS","NORMAL","NORMAL","","44","2018-11-21","44","Afternoon","4"
"S-00001","CL","S-00001-152","258","258","CS","Clinical Sign","CLINICAL SIGNS","NORMAL","NORMAL","","44","2018-11-21","44","End of the Day","5"
"S-00001","CL","S-00001-152","259","259","CS","Clinical Sign","CLINICAL SIGNS","NORMAL","NORMAL","","45","2018-11-22","45","Before Dosing","1"
"S-00001","CL","S-00001-152","260","260","CS","Clinical Sign","CLINICAL SIGNS","NORMAL","NORMAL","","45","2018-11-22","45","Afternoon","4"
"S-00001","CL","S-00001-152","261","261","CS","Clinical Sign","CLINICAL SIGNS","NORMAL","NORMAL","","45","2018-11-22","45","End of the Day","5"
"S-00001","CL","S-00001-152","262","262","CS","Clinical Sign","CLINICAL SIGNS","NORMAL","NORMAL","","46","2018-11-23","46","Before Dosing","1"
"S-00001","CL","S-00001-153","263","263","CS","Clinical Sign","CLINICAL SIGNS","NORMAL","NORMAL","","1","2018-10-09","1","Immediately after dosing","2"
"S-00001","CL","S-00001-153","264","264","CS","Clinical Sign","CLINICAL SIGNS","NORMAL","NORMAL","","1","2018-10-09","1","0.5h after treatment","3"
"S-00001","CL","S-00001-153","265","265","CS","Clinical Sign","CLINICAL SIGNS","NORMAL","NORMAL","","1","2018-10-09","1","Afternoon","4"
"S-00001","CL","S-00001-153","266","266","CS","Clinical Sign","CLINICAL SIGNS","NORMAL","NORMAL","","1","2018-10-09","1","End of the Day","5"
"S-00001","CL","S-00001-153","267","267","CS","Clinical Sign","CLINICAL SIGNS","NORMAL","NORMAL","","2","2018-10-10","2","Before Dosing","1"
"S-00001","CL","S-00001-153","268","268","CS","Clinical Sign","CLINICAL SIGNS","NORMAL","NORMAL","","2","2018-10-10","2","Immediately after dosing","2"
"S-00001","CL","S-00001-153","269","269","CS","Clinical Sign","CLINICAL SIGNS","NORMAL","NORMAL","","2","2018-10-10","2","0.5h after treatment","3"
"S-00001","CL","S-00001-153","270","270","CS","Clinical Sign","CLINICAL SIGNS","NORMAL","NORMAL","","2","2018-10-10","2","Afternoon","4"
"S-00001","CL","S-00001-153","271","271","CS","Clinical Sign","CLINICAL SIGNS","NORMAL","NORMAL","","2","2018-10-10","2","End of the Day","5"
"S-00001","CL","S-00001-153","272","272","CS","Clinical Sign","CLINICAL SIGNS","NORMAL","NORMAL","","3","2018-10-11","3","Before Dosing","1"
"S-00001","CL","S-00001-153","273","273","CS","Clinical Sign","CLINICAL SIGNS","NORMAL","NORMAL","","3","2018-10-11","3","Immediately after dosing","2"
"S-00001","CL","S-00001-153","274","274","CS","Clinical Sign","CLINICAL SIGNS","NORMAL","NORMAL","","3","2018-10-11","3","0.5h after treatment","3"
"S-00001","CL","S-00001-153","275","275","CS","Clinical Sign","CLINICAL SIGNS","NORMAL","NORMAL","","3","2018-10-11","3","Afternoon","4"
"S-00001","CL","S-00001-153","276","276","CS","Clinical Sign","CLINICAL SIGNS","NORMAL","NORMAL","","3","2018-10-11","3","End of the Day","5"
"S-00001","CL","S-00001-153","277","277","CS","Clinical Sign","CLINICAL SIGNS","NORMAL","NORMAL","","4","2018-10-12","4","Before Dosing","1"
"S-00001","CL","S-00001-153","278","278","CS","Clinical Sign","CLINICAL SIGNS","NORMAL","NORMAL","","4","2018-10-12","4","Immediately after dosing","2"
"S-00001","CL","S-00001-153","279","279","CS","Clinical Sign","CLINICAL SIGNS","NORMAL","NORMAL","","4","2018-10-12","4","0.5h after treatment","3"
"S-00001","CL","S-00001-153","280","280","CS","Clinical Sign","CLINICAL SIGNS","NORMAL","NORMAL","","4","2018-10-12","4","Afternoon","4"
"S-00001","CL","S-00001-153","281","281","CS","Clinical Sign","CLINICAL SIGNS","NORMAL","NORMAL","","4","2018-10-12","4","End of the Day","5"
"S-00001","CL","S-00001-153","282","282","CS","Clinical Sign","CLINICAL SIGNS","NORMAL","NORMAL","","5","2018-10-13","5","Before Dosing","1"
"S-00001","CL","S-00001-153","283","283","CS","Clinical Sign","CLINICAL SIGNS","NORMAL","NORMAL","","5","2018-10-13","5","Immediately after dosing","2"
"S-00001","CL","S-00001-153","284","284","CS","Clinical Sign","CLINICAL SIGNS","NORMAL","NORMAL","","6","2018-10-14","6","Before Dosing","1"
"S-00001","CL","S-00001-153","285","285","CS","Clinical Sign","CLINICAL SIGNS","NORMAL","NORMAL","","6","2018-10-14","6","Immediately after dosing","2"
"S-00001","CL","S-00001-153","286","286","CS","Clinical Sign","CLINICAL SIGNS","NORMAL","NORMAL","","7","2018-10-15","7","Before Dosing","1"
"S-00001","CL","S-00001-153","287","287","CS","Clinical Sign","CLINICAL SIGNS","NORMAL","NORMAL","","7","2018-10-15","7","Afternoon","4"
"S-00001","CL","S-00001-153","288","288","CS","Clinical Sign","CLINICAL SIGNS","NORMAL","NORMAL","","7","2018-10-15","7","End of the Day","5"
"S-00001","CL","S-00001-153","289","289","CS","Clinical Sign","CLINICAL SIGNS","NORMAL","NORMAL","","8","2018-10-16","8","Before Dosing","1"
"S-00001","CL","S-00001-153","290","290","CS","Clinical Sign","CLINICAL SIGNS","NORMAL","NORMAL","","8","2018-10-16","8","Afternoon","4"
"S-00001","CL","S-00001-153","291","291","CS","Clinical Sign","CLINICAL SIGNS","NORMAL","NORMAL","","8","2018-10-16","8","End of the Day","5"
"S-00001","CL","S-00001-153","292","292","CS","Clinical Sign","CLINICAL SIGNS","NORMAL","NORMAL","","9","2018-10-17","9","Before Dosing","1"
"S-00001","CL","S-00001-153","293","293","CS","Clinical Sign","CLINICAL SIGNS","NORMAL","NORMAL","","9","2018-10-17","9","Afternoon","4"
"S-00001","CL","S-00001-153","294","294","CS","Clinical Sign","CLINICAL SIGNS","NORMAL","NORMAL","","9","2018-10-17","9","End of the Day","5"
"S-00001","CL","S-00001-153","295","295","CS","Clinical Sign","CLINICAL SIGNS","NORMAL","NORMAL","","10","2018-10-18","10","Before Dosing","1"
"S-00001","CL","S-00001-153","296","296","CS","Clinical Sign","CLINICAL SIGNS","NORMAL","NORMAL","","10","2018-10-18","10","Afternoon","4"
"S-00001","CL","S-00001-153","297","297","CS","Clinical Sign","CLINICAL SIGNS","NORMAL","NORMAL","","10","2018-10-18","10","End of the Day","5"
"S-00001","CL","S-00001-153","298","298","CS","Clinical Sign","CLINICAL SIGNS","NORMAL","NORMAL","","11","2018-10-19","11","Before Dosing","1"
"S-00001","CL","S-00001-153","299","299","CS","Clinical Sign","CLINICAL SIGNS","NORMAL","NORMAL","","11","2018-10-19","11","Afternoon","4"
"S-00001","CL","S-00001-153","300","300","CS","Clinical Sign","CLINICAL SIGNS","NORMAL","NORMAL","","11","2018-10-19","11","End of the Day","5"
"S-00001","CL","S-00001-153","301","301","CS","Clinical Sign","CLINICAL SIGNS","NORMAL","NORMAL","","12","2018-10-20","12","Before Dosing","1"
"S-00001","CL","S-00001-153","302","302","CS","Clinical Sign","CLINICAL SIGNS","NORMAL","NORMAL","","12","2018-10-20","12","Immediately after dosing","2"
"S-00001","CL","S-00001-153","303","303","CS","Clinical Sign","CLINICAL SIGNS","NORMAL","NORMAL","","13","2018-10-21","13","Before Dosing","1"
"S-00001","CL","S-00001-153","304","304","CS","Clinical Sign","CLINICAL SIGNS","NORMAL","NORMAL","","13","2018-10-21","13","Immediately after dosing","2"
"S-00001","CL","S-00001-153","305","305","CS","Clinical Sign","CLINICAL SIGNS","NORMAL","NORMAL","","14","2018-10-22","14","Before Dosing","1"
"S-00001","CL","S-00001-153","306","306","CS","Clinical Sign","CLINICAL SIGNS","NORMAL","NORMAL","","14","2018-10-22","14","Afternoon","4"
"S-00001","CL","S-00001-153","307","307","CS","Clinical Sign","CLINICAL SIGNS","NORMAL","NORMAL","","14","2018-10-22","14","End of the Day","5"
"S-00001","CL","S-00001-153","308","308","CS","Clinical Sign","CLINICAL SIGNS","NORMAL","NORMAL","","15","2018-10-23","15","Before Dosing","1"
"S-00001","CL","S-00001-153","309","309","CS","Clinical Sign","CLINICAL SIGNS","NORMAL","NORMAL","","15","2018-10-23","15","Afternoon","4"
"S-00001","CL","S-00001-153","310","310","CS","Clinical Sign","CLINICAL SIGNS","NORMAL","NORMAL","","15","2018-10-23","15","End of the Day","5"
"S-00001","CL","S-00001-153","311","311","CS","Clinical Sign","CLINICAL SIGNS","NORMAL","NORMAL","","16","2018-10-24","16","Before Dosing","1"
"S-00001","CL","S-00001-153","312","312","CS","Clinical Sign","CLINICAL SIGNS","NORMAL","NORMAL","","16","2018-10-24","16","Afternoon","4"
"S-00001","CL","S-00001-153","313","313","CS","Clinical Sign","CLINICAL SIGNS","NORMAL","NORMAL","","16","2018-10-24","16","End of the Day","5"
"S-00001","CL","S-00001-153","314","314","CS","Clinical Sign","CLINICAL SIGNS","NORMAL","NORMAL","","17","2018-10-25","17","Before Dosing","1"
"S-00001","CL","S-00001-153","315","315","CS","Clinical Sign","CLINICAL SIGNS","NORMAL","NORMAL","","17","2018-10-25","17","Afternoon","4"
"S-00001","CL","S-00001-153","316","316","CS","Clinical Sign","CLINICAL SIGNS","NORMAL","NORMAL","","17","2018-10-25","17","End of the Day","5"
"S-00001","CL","S-00001-153","317","317","CS","Clinical Sign","CLINICAL SIGNS","NORMAL","NORMAL","","18","2018-10-26","18","Before Dosing","1"
"S-00001","CL","S-00001-153","318","318","CS","Clinical Sign","CLINICAL SIGNS","NORMAL","NORMAL","","18","2018-10-26","18","Afternoon","4"
"S-00001","CL","S-00001-153","319","319","CS","Clinical Sign","CLINICAL SIGNS","NORMAL","NORMAL","","18","2018-10-26","18","End of the Day","5"
"S-00001","CL","S-00001-153","320","320","CS","Clinical Sign","CLINICAL SIGNS","NORMAL","NORMAL","","19","2018-10-27","19","Before Dosing","1"
"S-00001","CL","S-00001-153","321","321","CS","Clinical Sign","CLINICAL SIGNS","NORMAL","NORMAL","","19","2018-10-27","19","Immediately after dosing","2"
"S-00001","CL","S-00001-153","322","322","CS","Clinical Sign","CLINICAL SIGNS","NORMAL","NORMAL","","20","2018-10-28","20","Before Dosing","1"
"S-00001","CL","S-00001-153","323","323","CS","Clinical Sign","CLINICAL SIGNS","NORMAL","NORMAL","","20","2018-10-28","20","Immediately after dosing","2"
"S-00001","CL","S-00001-153","324","324","CS","Clinical Sign","CLINICAL SIGNS","NORMAL","NORMAL","","21","2018-10-29","21","Before Dosing","1"
"S-00001","CL","S-00001-153","325","325","CS","Clinical Sign","CLINICAL SIGNS","NORMAL","NORMAL","","21","2018-10-29","21","Afternoon","4"
"S-00001","CL","S-00001-153","326","326","CS","Clinical Sign","CLINICAL SIGNS","NORMAL","NORMAL","","21","2018-10-29","21","End of the Day","5"
"S-00001","CL","S-00001-153","327","327","CS","Clinical Sign","CLINICAL SIGNS","NORMAL","NORMAL","","22","2018-10-30","22","Before Dosing","1"
"S-00001","CL","S-00001-153","328","328","CS","Clinical Sign","CLINICAL SIGNS","NORMAL","NORMAL","","22","2018-10-30","22","Afternoon","4"
"S-00001","CL","S-00001-153","329","329","CS","Clinical Sign","CLINICAL SIGNS","NORMAL","NORMAL","","22","2018-10-30","22","End of the Day","5"
"S-00001","CL","S-00001-153","330","330","CS","Clinical Sign","CLINICAL SIGNS","NORMAL","NORMAL","","23","2018-10-31","23","Before Dosing","1"
"S-00001","CL","S-00001-153","331","331","CS","Clinical Sign","CLINICAL SIGNS","NORMAL","NORMAL","","23","2018-10-31","23","Afternoon","4"
"S-00001","CL","S-00001-153","332","332","CS","Clinical Sign","CLINICAL SIGNS","NORMAL","NORMAL","","23","2018-10-31","23","End of the Day","5"
"S-00001","CL","S-00001-153","333","333","CS","Clinical Sign","CLINICAL SIGNS","NORMAL","NORMAL","","24","2018-11-01","24","Before Dosing","1"
"S-00001","CL","S-00001-153","334","334","CS","Clinical Sign","CLINICAL SIGNS","NORMAL","NORMAL","","24","2018-11-01","24","Afternoon","4"
"S-00001","CL","S-00001-153","335","335","CS","Clinical Sign","CLINICAL SIGNS","NORMAL","NORMAL","","24","2018-11-01","24","End of the Day","5"
"S-00001","CL","S-00001-153","336","336","CS","Clinical Sign","CLINICAL SIGNS","NORMAL","NORMAL","","25","2018-11-02","25","Before Dosing","1"
"S-00001","CL","S-00001-153","337","337","CS","Clinical Sign","CLINICAL SIGNS","NORMAL","NORMAL","","25","2018-11-02","25","Afternoon","4"
"S-00001","CL","S-00001-153","338","338","CS","Clinical Sign","CLINICAL SIGNS","NORMAL","NORMAL","","25","2018-11-02","25","End of the Day","5"
"S-00001","CL","S-00001-153","339","339","CS","Clinical Sign","CLINICAL SIGNS","NORMAL","NORMAL","","26","2018-11-03","26","Before Dosing","1"
"S-00001","CL","S-00001-153","340","340","CS","Clinical Sign","CLINICAL SIGNS","NORMAL","NORMAL","","26","2018-11-03","26","Immediately after dosing","2"
"S-00001","CL","S-00001-153","341","341","CS","Clinical Sign","CLINICAL SIGNS","NORMAL","NORMAL","","27","2018-11-04","27","Before Dosing","1"
"S-00001","CL","S-00001-153","342","342","CS","Clinical Sign","CLINICAL SIGNS","NORMAL","NORMAL","","27","2018-11-04","27","Immediately after dosing","2"
"S-00001","CL","S-00001-153","343","343","CS","Clinical Sign","CLINICAL SIGNS","NORMAL","NORMAL","","28","2018-11-05","28","Before Dosing","1"
"S-00001","CL","S-00001-153","344","344","CS","Clinical Sign","CLINICAL SIGNS","NORMAL","NORMAL","","28","2018-11-05","28","Afternoon","4"
"S-00001","CL","S-00001-153","345","345","CS","Clinical Sign","CLINICAL SIGNS","NORMAL","NORMAL","","28","2018-11-05","28","End of the Day","5"
"S-00001","CL","S-00001-153","346","346","CS","Clinical Sign","CLINICAL SIGNS","NORMAL","NORMAL","","29","2018-11-06","29","Before Dosing","1"
"S-00001","CL","S-00001-153","347","347","CS","Clinical Sign","CLINICAL SIGNS","NORMAL","NORMAL","","29","2018-11-06","29","Afternoon","4"
"S-00001","CL","S-00001-153","348","348","CS","Clinical Sign","CLINICAL SIGNS","NORMAL","NORMAL","","29","2018-11-06","29","End of the Day","5"
"S-00001","CL","S-00001-153","349","349","CS","Clinical Sign","CLINICAL SIGNS","NORMAL","NORMAL","","30","2018-11-07","30","Before Dosing","1"
"S-00001","CL","S-00001-153","350","350","CS","Clinical Sign","CLINICAL SIGNS","NORMAL","NORMAL","","30","2018-11-07","30","Afternoon","4"
"S-00001","CL","S-00001-153","351","351","CS","Clinical Sign","CLINICAL SIGNS","NORMAL","NORMAL","","30","2018-11-07","30","End of the Day","5"
"S-00001","CL","S-00001-153","352","352","CS","Clinical Sign","CLINICAL SIGNS","NORMAL","NORMAL","","31","2018-11-08","31","Before Dosing","1"
"S-00001","CL","S-00001-153","353","353","CS","Clinical Sign","CLINICAL SIGNS","NORMAL","NORMAL","","31","2018-11-08","31","Afternoon","4"
"S-00001","CL","S-00001-153","354","354","CS","Clinical Sign","CLINICAL SIGNS","NORMAL","NORMAL","","31","2018-11-08","31","End of the Day","5"
"S-00001","CL","S-00001-153","355","355","CS","Clinical Sign","CLINICAL SIGNS","NORMAL","NORMAL","","32","2018-11-09","32","Before Dosing","1"
"S-00001","CL","S-00001-153","356","356","CS","Clinical Sign","CLINICAL SIGNS","NORMAL","NORMAL","","32","2018-11-09","32","Afternoon","4"
"S-00001","CL","S-00001-153","357","357","CS","Clinical Sign","CLINICAL SIGNS","NORMAL","NORMAL","","32","2018-11-09","32","End of the Day","5"
"S-00001","CL","S-00001-153","358","358","CS","Clinical Sign","CLINICAL SIGNS","NORMAL","NORMAL","","33","2018-11-10","33","Before Dosing","1"
"S-00001","CL","S-00001-153","359","359","CS","Clinical Sign","CLINICAL SIGNS","NORMAL","NORMAL","","33","2018-11-10","33","Immediately after dosing","2"
"S-00001","CL","S-00001-153","360","360","CS","Clinical Sign","CLINICAL SIGNS","NORMAL","NORMAL","","34","2018-11-11","34","Before Dosing","1"
"S-00001","CL","S-00001-153","361","361","CS","Clinical Sign","CLINICAL SIGNS","NORMAL","NORMAL","","34","2018-11-11","34","Immediately after dosing","2"
"S-00001","CL","S-00001-153","362","362","CS","Clinical Sign","CLINICAL SIGNS","NORMAL","NORMAL","","35","2018-11-12","35","Before Dosing","1"
"S-00001","CL","S-00001-153","363","363","CS","Clinical Sign","CLINICAL SIGNS","NORMAL","NORMAL","","35","2018-11-12","35","Afternoon","4"
"S-00001","CL","S-00001-153","364","364","CS","Clinical Sign","CLINICAL SIGNS","NORMAL","NORMAL","","35","2018-11-12","35","End of the Day","5"
"S-00001","CL","S-00001-153","365","365","CS","Clinical Sign","CLINICAL SIGNS","NORMAL","NORMAL","","36","2018-11-13","36","Before Dosing","1"
"S-00001","CL","S-00001-153","366","366","CS","Clinical Sign","CLINICAL SIGNS","NORMAL","NORMAL","","36","2018-11-13","36","Afternoon","4"
"S-00001","CL","S-00001-153","367","367","CS","Clinical Sign","CLINICAL SIGNS","NORMAL","NORMAL","","36","2018-11-13","36","End of the Day","5"
"S-00001","CL","S-00001-153","368","368","CS","Clinical Sign","CLINICAL SIGNS","NORMAL","NORMAL","","37","2018-11-14","37","Before Dosing","1"
"S-00001","CL","S-00001-153","369","369","CS","Clinical Sign","CLINICAL SIGNS","NORMAL","NORMAL","","37","2018-11-14","37","Afternoon","4"
"S-00001","CL","S-00001-153","370","370","CS","Clinical Sign","CLINICAL SIGNS","NORMAL","NORMAL","","37","2018-11-14","37","End of the Day","5"
"S-00001","CL","S-00001-153","371","371","CS","Clinical Sign","CLINICAL SIGNS","NORMAL","NORMAL","","38","2018-11-15","38","Before Dosing","1"
"S-00001","CL","S-00001-153","372","372","CS","Clinical Sign","CLINICAL SIGNS","NORMAL","NORMAL","","38","2018-11-15","38","Afternoon","4"
"S-00001","CL","S-00001-153","373","373","CS","Clinical Sign","CLINICAL SIGNS","NORMAL","NORMAL","","38","2018-11-15","38","End of the Day","5"
"S-00001","CL","S-00001-153","374","374","CS","Clinical Sign","CLINICAL SIGNS","NORMAL","NORMAL","","39","2018-11-16","39","Before Dosing","1"
"S-00001","CL","S-00001-153","375","375","CS","Clinical Sign","CLINICAL SIGNS","NORMAL","NORMAL","","39","2018-11-16","39","Afternoon","4"
"S-00001","CL","S-00001-153","376","376","CS","Clinical Sign","CLINICAL SIGNS","NORMAL","NORMAL","","39","2018-11-16","39","End of the Day","5"
"S-00001","CL","S-00001-153","377","377","CS","Clinical Sign","CLINICAL SIGNS","NORMAL","NORMAL","","40","2018-11-17","40","Before Dosing","1"
"S-00001","CL","S-00001-153","378","378","CS","Clinical Sign","CLINICAL SIGNS","NORMAL","NORMAL","","40","2018-11-17","40","Immediately after dosing","2"
"S-00001","CL","S-00001-153","379","379","CS","Clinical Sign","CLINICAL SIGNS","NORMAL","NORMAL","","41","2018-11-18","41","Before Dosing","1"
"S-00001","CL","S-00001-153","380","380","CS","Clinical Sign","CLINICAL SIGNS","NORMAL","NORMAL","","41","2018-11-18","41","Immediately after dosing","2"
"S-00001","CL","S-00001-153","381","381","CS","Clinical Sign","CLINICAL SIGNS","NORMAL","NORMAL","","42","2018-11-19","42","Before Dosing","1"
"S-00001","CL","S-00001-153","382","382","CS","Clinical Sign","CLINICAL SIGNS","NORMAL","NORMAL","","42","2018-11-19","42","Afternoon","4"
"S-00001","CL","S-00001-153","383","383","CS","Clinical Sign","CLINICAL SIGNS","NORMAL","NORMAL","","42","2018-11-19","42","End of the Day","5"
"S-00001","CL","S-00001-153","384","384","CS","Clinical Sign","CLINICAL SIGNS","NORMAL","NORMAL","","43","2018-11-20","43","Before Dosing","1"
"S-00001","CL","S-00001-153","385","385","CS","Clinical Sign","CLINICAL SIGNS","NORMAL","NORMAL","","43","2018-11-20","43","Afternoon","4"
"S-00001","CL","S-00001-153","386","386","CS","Clinical Sign","CLINICAL SIGNS","NORMAL","NORMAL","","43","2018-11-20","43","End of the Day","5"
"S-00001","CL","S-00001-153","387","387","CS","Clinical Sign","CLINICAL SIGNS","NORMAL","NORMAL","","44","2018-11-21","44","Before Dosing","1"
"S-00001","CL","S-00001-153","388","388","CS","Clinical Sign","CLINICAL SIGNS","NORMAL","NORMAL","","44","2018-11-21","44","Afternoon","4"
"S-00001","CL","S-00001-153","389","389","CS","Clinical Sign","CLINICAL SIGNS","NORMAL","NORMAL","","44","2018-11-21","44","End of the Day","5"
"S-00001","CL","S-00001-153","390","390","CS","Clinical Sign","CLINICAL SIGNS","NORMAL","NORMAL","","45","2018-11-22","45","Before Dosing","1"
"S-00001","CL","S-00001-153","391","391","CS","Clinical Sign","CLINICAL SIGNS","NORMAL","NORMAL","","45","2018-11-22","45","Afternoon","4"
"S-00001","CL","S-00001-153","392","392","CS","Clinical Sign","CLINICAL SIGNS","NORMAL","NORMAL","","45","2018-11-22","45","End of the Day","5"
"S-00001","CL","S-00001-153","393","393","CS","Clinical Sign","CLINICAL SIGNS","NORMAL","NORMAL","","46","2018-11-23","46","Before Dosing","1"
"S-00001","CL","S-00001-154","394","394","CS","Clinical Sign","CLINICAL SIGNS","NORMAL","NORMAL","","1","2018-10-09","1","Immediately after dosing","2"
"S-00001","CL","S-00001-154","395","395","CS","Clinical Sign","CLINICAL SIGNS","NORMAL","NORMAL","","1","2018-10-09","1","0.5h after treatment","3"
"S-00001","CL","S-00001-154","396","396","CS","Clinical Sign","CLINICAL SIGNS","NORMAL","NORMAL","","1","2018-10-09","1","Afternoon","4"
"S-00001","CL","S-00001-154","397","397","CS","Clinical Sign","CLINICAL SIGNS","NORMAL","NORMAL","","1","2018-10-09","1","End of the Day","5"
"S-00001","CL","S-00001-154","398","398","CS","Clinical Sign","CLINICAL SIGNS","NORMAL","NORMAL","","2","2018-10-10","2","Before Dosing","1"
"S-00001","CL","S-00001-154","399","399","CS","Clinical Sign","CLINICAL SIGNS","NORMAL","NORMAL","","2","2018-10-10","2","Immediately after dosing","2"
"S-00001","CL","S-00001-154","400","400","CS","Clinical Sign","CLINICAL SIGNS","NORMAL","NORMAL","","2","2018-10-10","2","0.5h after treatment","3"
"S-00001","CL","S-00001-154","401","401","CS","Clinical Sign","CLINICAL SIGNS","NORMAL","NORMAL","","2","2018-10-10","2","Afternoon","4"
"S-00001","CL","S-00001-154","402","402","CS","Clinical Sign","CLINICAL SIGNS","NORMAL","NORMAL","","2","2018-10-10","2","End of the Day","5"
"S-00001","CL","S-00001-154","403","403","CS","Clinical Sign","CLINICAL SIGNS","NORMAL","NORMAL","","3","2018-10-11","3","Before Dosing","1"
"S-00001","CL","S-00001-154","404","404","CS","Clinical Sign","CLINICAL SIGNS","NORMAL","NORMAL","","3","2018-10-11","3","Immediately after dosing","2"
"S-00001","CL","S-00001-154","405","405","CS","Clinical Sign","CLINICAL SIGNS","NORMAL","NORMAL","","3","2018-10-11","3","0.5h after treatment","3"
"S-00001","CL","S-00001-154","406","406","CS","Clinical Sign","CLINICAL SIGNS","NORMAL","NORMAL","","3","2018-10-11","3","Afternoon","4"
"S-00001","CL","S-00001-154","407","407","CS","Clinical Sign","CLINICAL SIGNS","NORMAL","NORMAL","","3","2018-10-11","3","End of the Day","5"
"S-00001","CL","S-00001-154","408","408","CS","Clinical Sign","CLINICAL SIGNS","NORMAL","NORMAL","","4","2018-10-12","4","Before Dosing","1"
"S-00001","CL","S-00001-154","409","409","CS","Clinical Sign","CLINICAL SIGNS","NORMAL","NORMAL","","4","2018-10-12","4","Immediately after dosing","2"
"S-00001","CL","S-00001-154","410","410","CS","Clinical Sign","CLINICAL SIGNS","NORMAL","NORMAL","","4","2018-10-12","4","0.5h after treatment","3"
"S-00001","CL","S-00001-154","411","411","CS","Clinical Sign","CLINICAL SIGNS","NORMAL","NORMAL","","4","2018-10-12","4","Afternoon","4"
"S-00001","CL","S-00001-154","412","412","CS","Clinical Sign","CLINICAL SIGNS","NORMAL","NORMAL","","4","2018-10-12","4","End of the Day","5"
"S-00001","CL","S-00001-154","413","413","CS","Clinical Sign","CLINICAL SIGNS","NORMAL","NORMAL","","5","2018-10-13","5","Before Dosing","1"
"S-00001","CL","S-00001-154","414","414","CS","Clinical Sign","CLINICAL SIGNS","NORMAL","NORMAL","","5","2018-10-13","5","Immediately after dosing","2"
"S-00001","CL","S-00001-154","415","415","CS","Clinical Sign","CLINICAL SIGNS","NORMAL","NORMAL","","6","2018-10-14","6","Before Dosing","1"
"S-00001","CL","S-00001-154","416","416","CS","Clinical Sign","CLINICAL SIGNS","NORMAL","NORMAL","","6","2018-10-14","6","Immediately after dosing","2"
"S-00001","CL","S-00001-154","417","417","CS","Clinical Sign","CLINICAL SIGNS","NORMAL","NORMAL","","7","2018-10-15","7","Before Dosing","1"
"S-00001","CL","S-00001-154","418","418","CS","Clinical Sign","CLINICAL SIGNS","NORMAL","NORMAL","","7","2018-10-15","7","Afternoon","4"
"S-00001","CL","S-00001-154","419","419","CS","Clinical Sign","CLINICAL SIGNS","NORMAL","NORMAL","","7","2018-10-15","7","End of the Day","5"
"S-00001","CL","S-00001-154","420","420","CS","Clinical Sign","CLINICAL SIGNS","NORMAL","NORMAL","","8","2018-10-16","8","Before Dosing","1"
"S-00001","CL","S-00001-154","421","421","CS","Clinical Sign","CLINICAL SIGNS","NORMAL","NORMAL","","8","2018-10-16","8","Afternoon","4"
"S-00001","CL","S-00001-154","422","422","CS","Clinical Sign","CLINICAL SIGNS","NORMAL","NORMAL","","8","2018-10-16","8","End of the Day","5"
"S-00001","CL","S-00001-154","423","423","CS","Clinical Sign","CLINICAL SIGNS","NORMAL","NORMAL","","9","2018-10-17","9","Before Dosing","1"
"S-00001","CL","S-00001-154","424","424","CS","Clinical Sign","CLINICAL SIGNS","NORMAL","NORMAL","","9","2018-10-17","9","Afternoon","4"
"S-00001","CL","S-00001-154","425","425","CS","Clinical Sign","CLINICAL SIGNS","NORMAL","NORMAL","","9","2018-10-17","9","End of the Day","5"
"S-00001","CL","S-00001-154","426","426","CS","Clinical Sign","CLINICAL SIGNS","NORMAL","NORMAL","","10","2018-10-18","10","Before Dosing","1"
"S-00001","CL","S-00001-154","427","427","CS","Clinical Sign","CLINICAL SIGNS","NORMAL","NORMAL","","10","2018-10-18","10","Afternoon","4"
"S-00001","CL","S-00001-154","428","428","CS","Clinical Sign","CLINICAL SIGNS","NORMAL","NORMAL","","10","2018-10-18","10","End of the Day","5"
"S-00001","CL","S-00001-154","429","429","CS","Clinical Sign","CLINICAL SIGNS","NORMAL","NORMAL","","11","2018-10-19","11","Before Dosing","1"
"S-00001","CL","S-00001-154","430","430","CS","Clinical Sign","CLINICAL SIGNS","NORMAL","NORMAL","","11","2018-10-19","11","Afternoon","4"
"S-00001","CL","S-00001-154","431","431","CS","Clinical Sign","CLINICAL SIGNS","NORMAL","NORMAL","","11","2018-10-19","11","End of the Day","5"
"S-00001","CL","S-00001-154","432","432","CS","Clinical Sign","CLINICAL SIGNS","NORMAL","NORMAL","","12","2018-10-20","12","Before Dosing","1"
"S-00001","CL","S-00001-154","433","433","CS","Clinical Sign","CLINICAL SIGNS","NORMAL","NORMAL","","12","2018-10-20","12","Immediately after dosing","2"
"S-00001","CL","S-00001-154","434","434","CS","Clinical Sign","CLINICAL SIGNS","NORMAL","NORMAL","","13","2018-10-21","13","Before Dosing","1"
"S-00001","CL","S-00001-154","435","435","CS","Clinical Sign","CLINICAL SIGNS","NORMAL","NORMAL","","13","2018-10-21","13","Immediately after dosing","2"
"S-00001","CL","S-00001-154","436","436","CS","Clinical Sign","CLINICAL SIGNS","NORMAL","NORMAL","","14","2018-10-22","14","Before Dosing","1"
"S-00001","CL","S-00001-154","437","437","CS","Clinical Sign","CLINICAL SIGNS","NORMAL","NORMAL","","14","2018-10-22","14","Afternoon","4"
"S-00001","CL","S-00001-154","438","438","CS","Clinical Sign","CLINICAL SIGNS","NORMAL","NORMAL","","14","2018-10-22","14","End of the Day","5"
"S-00001","CL","S-00001-154","439","439","CS","Clinical Sign","CLINICAL SIGNS","NORMAL","NORMAL","","15","2018-10-23","15","Before Dosing","1"
"S-00001","CL","S-00001-154","440","440","CS","Clinical Sign","CLINICAL SIGNS","NORMAL","NORMAL","","15","2018-10-23","15","Afternoon","4"
"S-00001","CL","S-00001-154","441","441","CS","Clinical Sign","CLINICAL SIGNS","NORMAL","NORMAL","","15","2018-10-23","15","End of the Day","5"
"S-00001","CL","S-00001-154","442","442","CS","Clinical Sign","CLINICAL SIGNS","NORMAL","NORMAL","","16","2018-10-24","16","Before Dosing","1"
"S-00001","CL","S-00001-154","443","443","CS","Clinical Sign","CLINICAL SIGNS","NORMAL","NORMAL","","16","2018-10-24","16","Afternoon","4"
"S-00001","CL","S-00001-154","444","444","CS","Clinical Sign","CLINICAL SIGNS","NORMAL","NORMAL","","16","2018-10-24","16","End of the Day","5"
"S-00001","CL","S-00001-154","445","445","CS","Clinical Sign","CLINICAL SIGNS","NORMAL","NORMAL","","17","2018-10-25","17","Before Dosing","1"
"S-00001","CL","S-00001-154","446","446","CS","Clinical Sign","CLINICAL SIGNS","NORMAL","NORMAL","","17","2018-10-25","17","Afternoon","4"
"S-00001","CL","S-00001-154","447","447","CS","Clinical Sign","CLINICAL SIGNS","NORMAL","NORMAL","","17","2018-10-25","17","End of the Day","5"
"S-00001","CL","S-00001-154","448","448","CS","Clinical Sign","CLINICAL SIGNS","NORMAL","NORMAL","","18","2018-10-26","18","Before Dosing","1"
"S-00001","CL","S-00001-154","449","449","CS","Clinical Sign","CLINICAL SIGNS","NORMAL","NORMAL","","18","2018-10-26","18","Afternoon","4"
"S-00001","CL","S-00001-154","450","450","CS","Clinical Sign","CLINICAL SIGNS","NORMAL","NORMAL","","18","2018-10-26","18","End of the Day","5"
"S-00001","CL","S-00001-154","451","451","CS","Clinical Sign","CLINICAL SIGNS","NORMAL","NORMAL","","19","2018-10-27","19","Before Dosing","1"
"S-00001","CL","S-00001-154","452","452","CS","Clinical Sign","CLINICAL SIGNS","NORMAL","NORMAL","","19","2018-10-27","19","Immediately after dosing","2"
"S-00001","CL","S-00001-154","453","453","CS","Clinical Sign","CLINICAL SIGNS","NORMAL","NORMAL","","20","2018-10-28","20","Before Dosing","1"
"S-00001","CL","S-00001-154","454","454","CS","Clinical Sign","CLINICAL SIGNS","NORMAL","NORMAL","","20","2018-10-28","20","Immediately after dosing","2"
"S-00001","CL","S-00001-154","455","455","CS","Clinical Sign","CLINICAL SIGNS","NORMAL","NORMAL","","21","2018-10-29","21","Before Dosing","1"
"S-00001","CL","S-00001-154","456","456","CS","Clinical Sign","CLINICAL SIGNS","NORMAL","NORMAL","","21","2018-10-29","21","Afternoon","4"
"S-00001","CL","S-00001-154","457","457","CS","Clinical Sign","CLINICAL SIGNS","NORMAL","NORMAL","","21","2018-10-29","21","End of the Day","5"
"S-00001","CL","S-00001-154","458","458","CS","Clinical Sign","CLINICAL SIGNS","NORMAL","NORMAL","","22","2018-10-30","22","Before Dosing","1"
"S-00001","CL","S-00001-154","459","459","CS","Clinical Sign","CLINICAL SIGNS","NORMAL","NORMAL","","22","2018-10-30","22","Afternoon","4"
"S-00001","CL","S-00001-154","460","460","CS","Clinical Sign","CLINICAL SIGNS","NORMAL","NORMAL","","22","2018-10-30","22","End of the Day","5"
"S-00001","CL","S-00001-154","461","461","CS","Clinical Sign","CLINICAL SIGNS","NORMAL","NORMAL","","23","2018-10-31","23","Before Dosing","1"
"S-00001","CL","S-00001-154","462","462","CS","Clinical Sign","CLINICAL SIGNS","NORMAL","NORMAL","","23","2018-10-31","23","Afternoon","4"
"S-00001","CL","S-00001-154","463","463","CS","Clinical Sign","CLINICAL SIGNS","NORMAL","NORMAL","","23","2018-10-31","23","End of the Day","5"
"S-00001","CL","S-00001-154","464","464","CS","Clinical Sign","CLINICAL SIGNS","NORMAL","NORMAL","","24","2018-11-01","24","Before Dosing","1"
"S-00001","CL","S-00001-154","465","465","CS","Clinical Sign","CLINICAL SIGNS","NORMAL","NORMAL","","24","2018-11-01","24","Afternoon","4"
"S-00001","CL","S-00001-154","466","466","CS","Clinical Sign","CLINICAL SIGNS","NORMAL","NORMAL","","24","2018-11-01","24","End of the Day","5"
"S-00001","CL","S-00001-154","467","467","CS","Clinical Sign","CLINICAL SIGNS","NORMAL","NORMAL","","25","2018-11-02","25","Before Dosing","1"
"S-00001","CL","S-00001-154","468","468","CS","Clinical Sign","CLINICAL SIGNS","NORMAL","NORMAL","","25","2018-11-02","25","Afternoon","4"
"S-00001","CL","S-00001-154","469","469","CS","Clinical Sign","CLINICAL SIGNS","NORMAL","NORMAL","","25","2018-11-02","25","End of the Day","5"
"S-00001","CL","S-00001-154","470","470","CS","Clinical Sign","CLINICAL SIGNS","NORMAL","NORMAL","","26","2018-11-03","26","Before Dosing","1"
"S-00001","CL","S-00001-154","471","471","CS","Clinical Sign","CLINICAL SIGNS","NORMAL","NORMAL","","26","2018-11-03","26","Immediately after dosing","2"
"S-00001","CL","S-00001-154","472","472","CS","Clinical Sign","CLINICAL SIGNS","NORMAL","NORMAL","","27","2018-11-04","27","Before Dosing","1"
"S-00001","CL","S-00001-154","473","473","CS","Clinical Sign","CLINICAL SIGNS","NORMAL","NORMAL","","27","2018-11-04","27","Immediately after dosing","2"
"S-00001","CL","S-00001-154","474","474","CS","Clinical Sign","CLINICAL SIGNS","NORMAL","NORMAL","","28","2018-11-05","28","Before Dosing","1"
"S-00001","CL","S-00001-154","475","475","CS","Clinical Sign","CLINICAL SIGNS","NORMAL","NORMAL","","28","2018-11-05","28","Afternoon","4"
"S-00001","CL","S-00001-154","476","476","CS","Clinical Sign","CLINICAL SIGNS","NORMAL","NORMAL","","28","2018-11-05","28","End of the Day","5"
"S-00001","CL","S-00001-154","477","477","CS","Clinical Sign","CLINICAL SIGNS","NORMAL","NORMAL","","29","2018-11-06","29","Before Dosing","1"
"S-00001","CL","S-00001-154","478","478","CS","Clinical Sign","CLINICAL SIGNS","NORMAL","NORMAL","","29","2018-11-06","29","Afternoon","4"
"S-00001","CL","S-00001-154","479","479","CS","Clinical Sign","CLINICAL SIGNS","NORMAL","NORMAL","","29","2018-11-06","29","End of the Day","5"
"S-00001","CL","S-00001-154","480","480","CS","Clinical Sign","CLINICAL SIGNS","NORMAL","NORMAL","","30","2018-11-07","30","Before Dosing","1"
"S-00001","CL","S-00001-154","481","481","CS","Clinical Sign","CLINICAL SIGNS","NORMAL","NORMAL","","30","2018-11-07","30","Afternoon","4"
"S-00001","CL","S-00001-154","482","482","CS","Clinical Sign","CLINICAL SIGNS","NORMAL","NORMAL","","30","2018-11-07","30","End of the Day","5"
"S-00001","CL","S-00001-154","483","483","CS","Clinical Sign","CLINICAL SIGNS","NORMAL","NORMAL","","31","2018-11-08","31","Before Dosing","1"
"S-00001","CL","S-00001-154","484","484","CS","Clinical Sign","CLINICAL SIGNS","NORMAL","NORMAL","","31","2018-11-08","31","Afternoon","4"
"S-00001","CL","S-00001-154","485","485","CS","Clinical Sign","CLINICAL SIGNS","NORMAL","NORMAL","","31","2018-11-08","31","End of the Day","5"
"S-00001","CL","S-00001-154","486","486","CS","Clinical Sign","CLINICAL SIGNS","NORMAL","NORMAL","","32","2018-11-09","32","Before Dosing","1"
"S-00001","CL","S-00001-154","487","487","CS","Clinical Sign","CLINICAL SIGNS","NORMAL","NORMAL","","32","2018-11-09","32","Afternoon","4"
"S-00001","CL","S-00001-154","488","488","CS","Clinical Sign","CLINICAL SIGNS","NORMAL","NORMAL","","32","2018-11-09","32","End of the Day","5"
"S-00001","CL","S-00001-154","489","489","CS","Clinical Sign","CLINICAL SIGNS","NORMAL","NORMAL","","33","2018-11-10","33","Before Dosing","1"
"S-00001","CL","S-00001-154","490","490","CS","Clinical Sign","CLINICAL SIGNS","NORMAL","NORMAL","","33","2018-11-10","33","Immediately after dosing","2"
"S-00001","CL","S-00001-154","491","491","CS","Clinical Sign","CLINICAL SIGNS","NORMAL","NORMAL","","34","2018-11-11","34","Before Dosing","1"
"S-00001","CL","S-00001-154","492","492","CS","Clinical Sign","CLINICAL SIGNS","NORMAL","NORMAL","","34","2018-11-11","34","Immediately after dosing","2"
"S-00001","CL","S-00001-154","493","493","CS","Clinical Sign","CLINICAL SIGNS","NORMAL","NORMAL","","35","2018-11-12","35","Before Dosing","1"
"S-00001","CL","S-00001-154","494","494","CS","Clinical Sign","CLINICAL SIGNS","NORMAL","NORMAL","","35","2018-11-12","35","Afternoon","4"
"S-00001","CL","S-00001-154","495","495","CS","Clinical Sign","CLINICAL SIGNS","NORMAL","NORMAL","","35","2018-11-12","35","End of the Day","5"
"S-00001","CL","S-00001-154","496","496","CS","Clinical Sign","CLINICAL SIGNS","NORMAL","NORMAL","","36","2018-11-13","36","Before Dosing","1"
"S-00001","CL","S-00001-154","497","497","CS","Clinical Sign","CLINICAL SIGNS","NORMAL","NORMAL","","36","2018-11-13","36","Afternoon","4"
"S-00001","CL","S-00001-154","498","498","CS","Clinical Sign","CLINICAL SIGNS","NORMAL","NORMAL","","36","2018-11-13","36","End of the Day","5"
"S-00001","CL","S-00001-154","499","499","CS","Clinical Sign","CLINICAL SIGNS","NORMAL","NORMAL","","37","2018-11-14","37","Before Dosing","1"
"S-00001","CL","S-00001-154","500","500","CS","Clinical Sign","CLINICAL SIGNS","NORMAL","NORMAL","","37","2018-11-14","37","Afternoon","4"
"S-00001","CL","S-00001-154","501","501","CS","Clinical Sign","CLINICAL SIGNS","NORMAL","NORMAL","","37","2018-11-14","37","End of the Day","5"
"S-00001","CL","S-00001-154","502","502","CS","Clinical Sign","CLINICAL SIGNS","NORMAL","NORMAL","","38","2018-11-15","38","Before Dosing","1"
"S-00001","CL","S-00001-154","503","503","CS","Clinical Sign","CLINICAL SIGNS","NORMAL","NORMAL","","38","2018-11-15","38","Afternoon","4"
"S-00001","CL","S-00001-154","504","504","CS","Clinical Sign","CLINICAL SIGNS","NORMAL","NORMAL","","38","2018-11-15","38","End of the Day","5"
"S-00001","CL","S-00001-154","505","505","CS","Clinical Sign","CLINICAL SIGNS","NORMAL","NORMAL","","39","2018-11-16","39","Before Dosing","1"
"S-00001","CL","S-00001-154","506","506","CS","Clinical Sign","CLINICAL SIGNS","NORMAL","NORMAL","","39","2018-11-16","39","Afternoon","4"
"S-00001","CL","S-00001-154","507","507","CS","Clinical Sign","CLINICAL SIGNS","NORMAL","NORMAL","","39","2018-11-16","39","End of the Day","5"
"S-00001","CL","S-00001-154","508","508","CS","Clinical Sign","CLINICAL SIGNS","NORMAL","NORMAL","","40","2018-11-17","40","Before Dosing","1"
"S-00001","CL","S-00001-154","509","509","CS","Clinical Sign","CLINICAL SIGNS","NORMAL","NORMAL","","40","2018-11-17","40","Immediately after dosing","2"
"S-00001","CL","S-00001-154","510","510","CS","Clinical Sign","CLINICAL SIGNS","NORMAL","NORMAL","","41","2018-11-18","41","Before Dosing","1"
"S-00001","CL","S-00001-154","511","511","CS","Clinical Sign","CLINICAL SIGNS","NORMAL","NORMAL","","41","2018-11-18","41","Immediately after dosing","2"
"S-00001","CL","S-00001-154","512","512","CS","Clinical Sign","CLINICAL SIGNS","NORMAL","NORMAL","","42","2018-11-19","42","Before Dosing","1"
"S-00001","CL","S-00001-154","513","513","CS","Clinical Sign","CLINICAL SIGNS","NORMAL","NORMAL","","42","2018-11-19","42","Afternoon","4"
"S-00001","CL","S-00001-154","514","514","CS","Clinical Sign","CLINICAL SIGNS","NORMAL","NORMAL","","42","2018-11-19","42","End of the Day","5"
"S-00001","CL","S-00001-154","515","515","CS","Clinical Sign","CLINICAL SIGNS","NORMAL","NORMAL","","43","2018-11-20","43","Before Dosing","1"
"S-00001","CL","S-00001-154","516","516","CS","Clinical Sign","CLINICAL SIGNS","NORMAL","NORMAL","","43","2018-11-20","43","Afternoon","4"
"S-00001","CL","S-00001-154","517","517","CS","Clinical Sign","CLINICAL SIGNS","NORMAL","NORMAL","","43","2018-11-20","43","End of the Day","5"
"S-00001","CL","S-00001-154","518","518","CS","Clinical Sign","CLINICAL SIGNS","NORMAL","NORMAL","","44","2018-11-21","44","Before Dosing","1"
"S-00001","CL","S-00001-154","519","519","CS","Clinical Sign","CLINICAL SIGNS","NORMAL","NORMAL","","44","2018-11-21","44","Afternoon","4"
"S-00001","CL","S-00001-154","520","520","CS","Clinical Sign","CLINICAL SIGNS","NORMAL","NORMAL","","44","2018-11-21","44","End of the Day","5"
"S-00001","CL","S-00001-154","521","521","CS","Clinical Sign","CLINICAL SIGNS","NORMAL","NORMAL","","45","2018-11-22","45","Before Dosing","1"
"S-00001","CL","S-00001-154","522","522","CS","Clinical Sign","CLINICAL SIGNS","NORMAL","NORMAL","","45","2018-11-22","45","Afternoon","4"
"S-00001","CL","S-00001-154","523","523","CS","Clinical Sign","CLINICAL SIGNS","NORMAL","NORMAL","","45","2018-11-22","45","End of the Day","5"
"S-00001","CL","S-00001-154","524","524","CS","Clinical Sign","CLINICAL SIGNS","NORMAL","NORMAL","","46","2018-11-23","46","Before Dosing","1"
"S-00001","CL","S-00001-155","525","525","CS","Clinical Sign","CLINICAL SIGNS","NORMAL","NORMAL","","1","2018-10-09","1","Immediately after dosing","2"
"S-00001","CL","S-00001-155","526","526","CS","Clinical Sign","CLINICAL SIGNS","NORMAL","NORMAL","","1","2018-10-09","1","0.5h after treatment","3"
"S-00001","CL","S-00001-155","527","527","CS","Clinical Sign","CLINICAL SIGNS","NORMAL","NORMAL","","1","2018-10-09","1","Afternoon","4"
"S-00001","CL","S-00001-155","528","528","CS","Clinical Sign","CLINICAL SIGNS","NORMAL","NORMAL","","1","2018-10-09","1","End of the Day","5"
"S-00001","CL","S-00001-155","529","529","CS","Clinical Sign","CLINICAL SIGNS","NORMAL","NORMAL","","2","2018-10-10","2","Before Dosing","1"
"S-00001","CL","S-00001-155","530","530","CS","Clinical Sign","CLINICAL SIGNS","NORMAL","NORMAL","","2","2018-10-10","2","Immediately after dosing","2"
"S-00001","CL","S-00001-155","531","531","CS","Clinical Sign","CLINICAL SIGNS","NORMAL","NORMAL","","2","2018-10-10","2","0.5h after treatment","3"
"S-00001","CL","S-00001-155","532","532","CS","Clinical Sign","CLINICAL SIGNS","NORMAL","NORMAL","","2","2018-10-10","2","Afternoon","4"
"S-00001","CL","S-00001-155","533","533","CS","Clinical Sign","CLINICAL SIGNS","NORMAL","NORMAL","","2","2018-10-10","2","End of the Day","5"
"S-00001","CL","S-00001-155","534","534","CS","Clinical Sign","CLINICAL SIGNS","NORMAL","NORMAL","","3","2018-10-11","3","Before Dosing","1"
"S-00001","CL","S-00001-155","535","535","CS","Clinical Sign","CLINICAL SIGNS","NORMAL","NORMAL","","3","2018-10-11","3","Immediately after dosing","2"
"S-00001","CL","S-00001-155","536","536","CS","Clinical Sign","CLINICAL SIGNS","NORMAL","NORMAL","","3","2018-10-11","3","0.5h after treatment","3"
"S-00001","CL","S-00001-155","537","537","CS","Clinical Sign","CLINICAL SIGNS","NORMAL","NORMAL","","3","2018-10-11","3","Afternoon","4"
"S-00001","CL","S-00001-155","538","538","CS","Clinical Sign","CLINICAL SIGNS","NORMAL","NORMAL","","3","2018-10-11","3","End of the Day","5"
"S-00001","CL","S-00001-155","539","539","CS","Clinical Sign","CLINICAL SIGNS","NORMAL","NORMAL","","4","2018-10-12","4","Before Dosing","1"
"S-00001","CL","S-00001-155","540","540","CS","Clinical Sign","CLINICAL SIGNS","NORMAL","NORMAL","","4","2018-10-12","4","Immediately after dosing","2"
"S-00001","CL","S-00001-155","541","541","CS","Clinical Sign","CLINICAL SIGNS","NORMAL","NORMAL","","4","2018-10-12","4","0.5h after treatment","3"
"S-00001","CL","S-00001-155","542","542","CS","Clinical Sign","CLINICAL SIGNS","NORMAL","NORMAL","","4","2018-10-12","4","Afternoon","4"
"S-00001","CL","S-00001-155","543","543","CS","Clinical Sign","CLINICAL SIGNS","NORMAL","NORMAL","","4","2018-10-12","4","End of the Day","5"
"S-00001","CL","S-00001-155","544","544","CS","Clinical Sign","CLINICAL SIGNS","NORMAL","NORMAL","","5","2018-10-13","5","Before Dosing","1"
"S-00001","CL","S-00001-155","545","545","CS","Clinical Sign","CLINICAL SIGNS","NORMAL","NORMAL","","5","2018-10-13","5","Immediately after dosing","2"
"S-00001","CL","S-00001-155","546","546","CS","Clinical Sign","CLINICAL SIGNS","NORMAL","NORMAL","","6","2018-10-14","6","Before Dosing","1"
"S-00001","CL","S-00001-155","547","547","CS","Clinical Sign","CLINICAL SIGNS","NORMAL","NORMAL","","6","2018-10-14","6","Immediately after dosing","2"
"S-00001","CL","S-00001-155","548","548","CS","Clinical Sign","CLINICAL SIGNS","NORMAL","NORMAL","","7","2018-10-15","7","Before Dosing","1"
"S-00001","CL","S-00001-155","549","549","CS","Clinical Sign","CLINICAL SIGNS","NORMAL","NORMAL","","7","2018-10-15","7","Afternoon","4"
"S-00001","CL","S-00001-155","550","550","CS","Clinical Sign","CLINICAL SIGNS","NORMAL","NORMAL","","7","2018-10-15","7","End of the Day","5"
"S-00001","CL","S-00001-155","551","551","CS","Clinical Sign","CLINICAL SIGNS","NORMAL","NORMAL","","8","2018-10-16","8","Before Dosing","1"
"S-00001","CL","S-00001-155","552","552","CS","Clinical Sign","CLINICAL SIGNS","NORMAL","NORMAL","","8","2018-10-16","8","Afternoon","4"
"S-00001","CL","S-00001-155","553","553","CS","Clinical Sign","CLINICAL SIGNS","NORMAL","NORMAL","","8","2018-10-16","8","End of the Day","5"
"S-00001","CL","S-00001-155","554","554","CS","Clinical Sign","CLINICAL SIGNS","NORMAL","NORMAL","","9","2018-10-17","9","Before Dosing","1"
"S-00001","CL","S-00001-155","555","555","CS","Clinical Sign","CLINICAL SIGNS","NORMAL","NORMAL","","9","2018-10-17","9","Afternoon","4"
"S-00001","CL","S-00001-155","556","556","CS","Clinical Sign","CLINICAL SIGNS","NORMAL","NORMAL","","9","2018-10-17","9","End of the Day","5"
"S-00001","CL","S-00001-155","557","557","CS","Clinical Sign","CLINICAL SIGNS","NORMAL","NORMAL","","10","2018-10-18","10","Before Dosing","1"
"S-00001","CL","S-00001-155","558","558","CS","Clinical Sign","CLINICAL SIGNS","NORMAL","NORMAL","","10","2018-10-18","10","Afternoon","4"
"S-00001","CL","S-00001-155","559","559","CS","Clinical Sign","CLINICAL SIGNS","NORMAL","NORMAL","","10","2018-10-18","10","End of the Day","5"
"S-00001","CL","S-00001-155","560","560","CS","Clinical Sign","CLINICAL SIGNS","NORMAL","NORMAL","","11","2018-10-19","11","Before Dosing","1"
"S-00001","CL","S-00001-155","561","561","CS","Clinical Sign","CLINICAL SIGNS","NORMAL","NORMAL","","11","2018-10-19","11","Afternoon","4"
"S-00001","CL","S-00001-155","562","562","CS","Clinical Sign","CLINICAL SIGNS","NORMAL","NORMAL","","11","2018-10-19","11","End of the Day","5"
"S-00001","CL","S-00001-155","563","563","CS","Clinical Sign","CLINICAL SIGNS","NORMAL","NORMAL","","12","2018-10-20","12","Before Dosing","1"
"S-00001","CL","S-00001-155","564","564","CS","Clinical Sign","CLINICAL SIGNS","NORMAL","NORMAL","","12","2018-10-20","12","Immediately after dosing","2"
"S-00001","CL","S-00001-155","565","565","CS","Clinical Sign","CLINICAL SIGNS","NORMAL","NORMAL","","13","2018-10-21","13","Before Dosing","1"
"S-00001","CL","S-00001-155","566","566","CS","Clinical Sign","CLINICAL SIGNS","NORMAL","NORMAL","","13","2018-10-21","13","Immediately after dosing","2"
"S-00001","CL","S-00001-155","567","567","CS","Clinical Sign","CLINICAL SIGNS","NORMAL","NORMAL","","14","2018-10-22","14","Before Dosing","1"
"S-00001","CL","S-00001-155","568","568","CS","Clinical Sign","CLINICAL SIGNS","NORMAL","NORMAL","","14","2018-10-22","14","Afternoon","4"
"S-00001","CL","S-00001-155","569","569","CS","Clinical Sign","CLINICAL SIGNS","NORMAL","NORMAL","","14","2018-10-22","14","End of the Day","5"
"S-00001","CL","S-00001-155","570","570","CS","Clinical Sign","CLINICAL SIGNS","NORMAL","NORMAL","","15","2018-10-23","15","Before Dosing","1"
"S-00001","CL","S-00001-155","571","571","CS","Clinical Sign","CLINICAL SIGNS","NORMAL","NORMAL","","15","2018-10-23","15","Afternoon","4"
"S-00001","CL","S-00001-155","572","572","CS","Clinical Sign","CLINICAL SIGNS","NORMAL","NORMAL","","15","2018-10-23","15","End of the Day","5"
"S-00001","CL","S-00001-155","573","573","CS","Clinical Sign","CLINICAL SIGNS","NORMAL","NORMAL","","16","2018-10-24","16","Before Dosing","1"
"S-00001","CL","S-00001-155","574","574","CS","Clinical Sign","CLINICAL SIGNS","NORMAL","NORMAL","","16","2018-10-24","16","Afternoon","4"
"S-00001","CL","S-00001-155","575","575","CS","Clinical Sign","CLINICAL SIGNS","NORMAL","NORMAL","","16","2018-10-24","16","End of the Day","5"
"S-00001","CL","S-00001-155","576","576","CS","Clinical Sign","CLINICAL SIGNS","NORMAL","NORMAL","","17","2018-10-25","17","Before Dosing","1"
"S-00001","CL","S-00001-155","577","577","CS","Clinical Sign","CLINICAL SIGNS","NORMAL","NORMAL","","17","2018-10-25","17","Afternoon","4"
"S-00001","CL","S-00001-155","578","578","CS","Clinical Sign","CLINICAL SIGNS","NORMAL","NORMAL","","17","2018-10-25","17","End of the Day","5"
"S-00001","CL","S-00001-155","579","579","CS","Clinical Sign","CLINICAL SIGNS","NORMAL","NORMAL","","18","2018-10-26","18","Before Dosing","1"
"S-00001","CL","S-00001-155","580","580","CS","Clinical Sign","CLINICAL SIGNS","NORMAL","NORMAL","","18","2018-10-26","18","Afternoon","4"
"S-00001","CL","S-00001-155","581","581","CS","Clinical Sign","CLINICAL SIGNS","NORMAL","NORMAL","","18","2018-10-26","18","End of the Day","5"
"S-00001","CL","S-00001-155","582","582","CS","Clinical Sign","CLINICAL SIGNS","NORMAL","NORMAL","","19","2018-10-27","19","Before Dosing","1"
"S-00001","CL","S-00001-155","583","583","CS","Clinical Sign","CLINICAL SIGNS","NORMAL","NORMAL","","19","2018-10-27","19","Immediately after dosing","2"
"S-00001","CL","S-00001-155","584","584","CS","Clinical Sign","CLINICAL SIGNS","NORMAL","NORMAL","","20","2018-10-28","20","Before Dosing","1"
"S-00001","CL","S-00001-155","585","585","CS","Clinical Sign","CLINICAL SIGNS","NORMAL","NORMAL","","20","2018-10-28","20","Immediately after dosing","2"
"S-00001","CL","S-00001-155","586","586","CS","Clinical Sign","CLINICAL SIGNS","NORMAL","NORMAL","","21","2018-10-29","21","Before Dosing","1"
"S-00001","CL","S-00001-155","587","587","CS","Clinical Sign","CLINICAL SIGNS","NORMAL","NORMAL","","21","2018-10-29","21","Afternoon","4"
"S-00001","CL","S-00001-155","588","588","CS","Clinical Sign","CLINICAL SIGNS","NORMAL","NORMAL","","21","2018-10-29","21","End of the Day","5"
"S-00001","CL","S-00001-155","589","589","CS","Clinical Sign","CLINICAL SIGNS","NORMAL","NORMAL","","22","2018-10-30","22","Before Dosing","1"
"S-00001","CL","S-00001-155","590","590","CS","Clinical Sign","CLINICAL SIGNS","NORMAL","NORMAL","","22","2018-10-30","22","Afternoon","4"
"S-00001","CL","S-00001-155","591","591","CS","Clinical Sign","CLINICAL SIGNS","NORMAL","NORMAL","","22","2018-10-30","22","End of the Day","5"
"S-00001","CL","S-00001-155","592","592","CS","Clinical Sign","CLINICAL SIGNS","NORMAL","NORMAL","","23","2018-10-31","23","Before Dosing","1"
"S-00001","CL","S-00001-155","593","593","CS","Clinical Sign","CLINICAL SIGNS","NORMAL","NORMAL","","23","2018-10-31","23","Afternoon","4"
"S-00001","CL","S-00001-155","594","594","CS","Clinical Sign","CLINICAL SIGNS","NORMAL","NORMAL","","23","2018-10-31","23","End of the Day","5"
"S-00001","CL","S-00001-155","595","595","CS","Clinical Sign","CLINICAL SIGNS","NORMAL","NORMAL","","24","2018-11-01","24","Before Dosing","1"
"S-00001","CL","S-00001-155","596","596","CS","Clinical Sign","CLINICAL SIGNS","NORMAL","NORMAL","","24","2018-11-01","24","Afternoon","4"
"S-00001","CL","S-00001-155","597","597","CS","Clinical Sign","CLINICAL SIGNS","NORMAL","NORMAL","","24","2018-11-01","24","End of the Day","5"
"S-00001","CL","S-00001-155","598","598","CS","Clinical Sign","CLINICAL SIGNS","NORMAL","NORMAL","","25","2018-11-02","25","Before Dosing","1"
"S-00001","CL","S-00001-155","599","599","CS","Clinical Sign","CLINICAL SIGNS","NORMAL","NORMAL","","25","2018-11-02","25","Afternoon","4"
"S-00001","CL","S-00001-155","600","600","CS","Clinical Sign","CLINICAL SIGNS","NORMAL","NORMAL","","25","2018-11-02","25","End of the Day","5"
"S-00001","CL","S-00001-155","601","601","CS","Clinical Sign","CLINICAL SIGNS","NORMAL","NORMAL","","26","2018-11-03","26","Before Dosing","1"
"S-00001","CL","S-00001-155","602","602","CS","Clinical Sign","CLINICAL SIGNS","NORMAL","NORMAL","","26","2018-11-03","26","Immediately after dosing","2"
"S-00001","CL","S-00001-155","603","603","CS","Clinical Sign","CLINICAL SIGNS","NORMAL","NORMAL","","27","2018-11-04","27","Before Dosing","1"
"S-00001","CL","S-00001-155","604","604","CS","Clinical Sign","CLINICAL SIGNS","NORMAL","NORMAL","","27","2018-11-04","27","Immediately after dosing","2"
"S-00001","CL","S-00001-155","605","605","CS","Clinical Sign","CLINICAL SIGNS","NORMAL","NORMAL","","28","2018-11-05","28","Before Dosing","1"
"S-00001","CL","S-00001-155","606","606","CS","Clinical Sign","CLINICAL SIGNS","NORMAL","NORMAL","","28","2018-11-05","28","Afternoon","4"
"S-00001","CL","S-00001-155","607","607","CS","Clinical Sign","CLINICAL SIGNS","NORMAL","NORMAL","","28","2018-11-05","28","End of the Day","5"
"S-00001","CL","S-00001-155","608","608","CS","Clinical Sign","CLINICAL SIGNS","NORMAL","NORMAL","","29","2018-11-06","29","Before Dosing","1"
"S-00001","CL","S-00001-155","609","609","CS","Clinical Sign","CLINICAL SIGNS","NORMAL","NORMAL","","29","2018-11-06","29","Afternoon","4"
"S-00001","CL","S-00001-155","610","610","CS","Clinical Sign","CLINICAL SIGNS","NORMAL","NORMAL","","29","2018-11-06","29","End of the Day","5"
"S-00001","CL","S-00001-155","611","611","CS","Clinical Sign","CLINICAL SIGNS","NORMAL","NORMAL","","30","2018-11-07","30","Before Dosing","1"
"S-00001","CL","S-00001-155","612","612","CS","Clinical Sign","CLINICAL SIGNS","NORMAL","NORMAL","","30","2018-11-07","30","Afternoon","4"
"S-00001","CL","S-00001-155","613","613","CS","Clinical Sign","CLINICAL SIGNS","NORMAL","NORMAL","","30","2018-11-07","30","End of the Day","5"
"S-00001","CL","S-00001-155","614","614","CS","Clinical Sign","CLINICAL SIGNS","NORMAL","NORMAL","","31","2018-11-08","31","Before Dosing","1"
"S-00001","CL","S-00001-155","615","615","CS","Clinical Sign","CLINICAL SIGNS","NORMAL","NORMAL","","31","2018-11-08","31","Afternoon","4"
"S-00001","CL","S-00001-155","616","616","CS","Clinical Sign","CLINICAL SIGNS","NORMAL","NORMAL","","31","2018-11-08","31","End of the Day","5"
"S-00001","CL","S-00001-155","617","617","CS","Clinical Sign","CLINICAL SIGNS","NORMAL","NORMAL","","32","2018-11-09","32","Before Dosing","1"
"S-00001","CL","S-00001-155","618","618","CS","Clinical Sign","CLINICAL SIGNS","NORMAL","NORMAL","","32","2018-11-09","32","Afternoon","4"
"S-00001","CL","S-00001-155","619","619","CS","Clinical Sign","CLINICAL SIGNS","NORMAL","NORMAL","","32","2018-11-09","32","End of the Day","5"
"S-00001","CL","S-00001-155","620","620","CS","Clinical Sign","CLINICAL SIGNS","NORMAL","NORMAL","","33","2018-11-10","33","Before Dosing","1"
"S-00001","CL","S-00001-155","621","621","CS","Clinical Sign","CLINICAL SIGNS","NORMAL","NORMAL","","33","2018-11-10","33","Immediately after dosing","2"
"S-00001","CL","S-00001-155","622","622","CS","Clinical Sign","CLINICAL SIGNS","NORMAL","NORMAL","","34","2018-11-11","34","Before Dosing","1"
"S-00001","CL","S-00001-155","623","623","CS","Clinical Sign","CLINICAL SIGNS","NORMAL","NORMAL","","34","2018-11-11","34","Immediately after dosing","2"
"S-00001","CL","S-00001-155","624","624","CS","Clinical Sign","CLINICAL SIGNS","NORMAL","NORMAL","","35","2018-11-12","35","Before Dosing","1"
"S-00001","CL","S-00001-155","625","625","CS","Clinical Sign","CLINICAL SIGNS","NORMAL","NORMAL","","35","2018-11-12","35","Afternoon","4"
"S-00001","CL","S-00001-155","626","626","CS","Clinical Sign","CLINICAL SIGNS","NORMAL","NORMAL","","35","2018-11-12","35","End of the Day","5"
"S-00001","CL","S-00001-155","627","627","CS","Clinical Sign","CLINICAL SIGNS","NORMAL","NORMAL","","36","2018-11-13","36","Before Dosing","1"
"S-00001","CL","S-00001-155","628","628","CS","Clinical Sign","CLINICAL SIGNS","NORMAL","NORMAL","","36","2018-11-13","36","Afternoon","4"
"S-00001","CL","S-00001-155","629","629","CS","Clinical Sign","CLINICAL SIGNS","NORMAL","NORMAL","","36","2018-11-13","36","End of the Day","5"
"S-00001","CL","S-00001-155","630","630","CS","Clinical Sign","CLINICAL SIGNS","NORMAL","NORMAL","","37","2018-11-14","37","Before Dosing","1"
"S-00001","CL","S-00001-155","631","631","CS","Clinical Sign","CLINICAL SIGNS","NORMAL","NORMAL","","37","2018-11-14","37","Afternoon","4"
"S-00001","CL","S-00001-155","632","632","CS","Clinical Sign","CLINICAL SIGNS","NORMAL","NORMAL","","37","2018-11-14","37","End of the Day","5"
"S-00001","CL","S-00001-155","633","633","CS","Clinical Sign","CLINICAL SIGNS","NORMAL","NORMAL","","38","2018-11-15","38","Before Dosing","1"
"S-00001","CL","S-00001-155","634","634","CS","Clinical Sign","CLINICAL SIGNS","NORMAL","NORMAL","","38","2018-11-15","38","Afternoon","4"
"S-00001","CL","S-00001-155","635","635","CS","Clinical Sign","CLINICAL SIGNS","NORMAL","NORMAL","","38","2018-11-15","38","End of the Day","5"
"S-00001","CL","S-00001-155","636","636","CS","Clinical Sign","CLINICAL SIGNS","NORMAL","NORMAL","","39","2018-11-16","39","Before Dosing","1"
"S-00001","CL","S-00001-155","637","637","CS","Clinical Sign","CLINICAL SIGNS","NORMAL","NORMAL","","39","2018-11-16","39","Afternoon","4"
"S-00001","CL","S-00001-155","638","638","CS","Clinical Sign","CLINICAL SIGNS","NORMAL","NORMAL","","39","2018-11-16","39","End of the Day","5"
"S-00001","CL","S-00001-155","639","639","CS","Clinical Sign","CLINICAL SIGNS","NORMAL","NORMAL","","40","2018-11-17","40","Before Dosing","1"
"S-00001","CL","S-00001-155","640","640","CS","Clinical Sign","CLINICAL SIGNS","NORMAL","NORMAL","","40","2018-11-17","40","Immediately after dosing","2"
"S-00001","CL","S-00001-155","641","641","CS","Clinical Sign","CLINICAL SIGNS","NORMAL","NORMAL","","41","2018-11-18","41","Before Dosing","1"
"S-00001","CL","S-00001-155","642","642","CS","Clinical Sign","CLINICAL SIGNS","NORMAL","NORMAL","","41","2018-11-18","41","Immediately after dosing","2"
"S-00001","CL","S-00001-155","643","643","CS","Clinical Sign","CLINICAL SIGNS","NORMAL","NORMAL","","42","2018-11-19","42","Before Dosing","1"
"S-00001","CL","S-00001-155","644","644","CS","Clinical Sign","CLINICAL SIGNS","NORMAL","NORMAL","","42","2018-11-19","42","Afternoon","4"
"S-00001","CL","S-00001-155","645","645","CS","Clinical Sign","CLINICAL SIGNS","NORMAL","NORMAL","","42","2018-11-19","42","End of the Day","5"
"S-00001","CL","S-00001-155","646","646","CS","Clinical Sign","CLINICAL SIGNS","NORMAL","NORMAL","","43","2018-11-20","43","Before Dosing","1"
"S-00001","CL","S-00001-155","647","647","CS","Clinical Sign","CLINICAL SIGNS","NORMAL","NORMAL","","43","2018-11-20","43","Afternoon","4"
"S-00001","CL","S-00001-155","648","648","CS","Clinical Sign","CLINICAL SIGNS","NORMAL","NORMAL","","43","2018-11-20","43","End of the Day","5"
"S-00001","CL","S-00001-155","649","649","CS","Clinical Sign","CLINICAL SIGNS","NORMAL","NORMAL","","44","2018-11-21","44","Before Dosing","1"
"S-00001","CL","S-00001-155","650","650","CS","Clinical Sign","CLINICAL SIGNS","NORMAL","NORMAL","","44","2018-11-21","44","Afternoon","4"
"S-00001","CL","S-00001-155","651","651","CS","Clinical Sign","CLINICAL SIGNS","NORMAL","NORMAL","","44","2018-11-21","44","End of the Day","5"
"S-00001","CL","S-00001-155","652","652","CS","Clinical Sign","CLINICAL SIGNS","NORMAL","NORMAL","","45","2018-11-22","45","Before Dosing","1"
"S-00001","CL","S-00001-155","653","653","CS","Clinical Sign","CLINICAL SIGNS","NORMAL","NORMAL","","45","2018-11-22","45","Afternoon","4"
"S-00001","CL","S-00001-155","654","654","CS","Clinical Sign","CLINICAL SIGNS","NORMAL","NORMAL","","45","2018-11-22","45","End of the Day","5"
"S-00001","CL","S-00001-155","655","655","CS","Clinical Sign","CLINICAL SIGNS","NORMAL","NORMAL","","46","2018-11-23","46","Before Dosing","1"
"S-00001","CL","S-00001-156","656","656","CS","Clinical Sign","CLINICAL SIGNS","NORMAL","NORMAL","","1","2018-10-09","1","Immediately after dosing","2"
"S-00001","CL","S-00001-156","657","657","CS","Clinical Sign","CLINICAL SIGNS","NORMAL","NORMAL","","1","2018-10-09","1","0.5h after treatment","3"
"S-00001","CL","S-00001-156","658","658","CS","Clinical Sign","CLINICAL SIGNS","NORMAL","NORMAL","","1","2018-10-09","1","Afternoon","4"
"S-00001","CL","S-00001-156","659","659","CS","Clinical Sign","CLINICAL SIGNS","NORMAL","NORMAL","","1","2018-10-09","1","End of the Day","5"
"S-00001","CL","S-00001-156","660","660","CS","Clinical Sign","CLINICAL SIGNS","NORMAL","NORMAL","","2","2018-10-10","2","Before Dosing","1"
"S-00001","CL","S-00001-156","661","661","CS","Clinical Sign","CLINICAL SIGNS","NORMAL","NORMAL","","2","2018-10-10","2","Immediately after dosing","2"
"S-00001","CL","S-00001-156","662","662","CS","Clinical Sign","CLINICAL SIGNS","NORMAL","NORMAL","","2","2018-10-10","2","0.5h after treatment","3"
"S-00001","CL","S-00001-156","663","663","CS","Clinical Sign","CLINICAL SIGNS","NORMAL","NORMAL","","2","2018-10-10","2","Afternoon","4"
"S-00001","CL","S-00001-156","664","664","CS","Clinical Sign","CLINICAL SIGNS","NORMAL","NORMAL","","2","2018-10-10","2","End of the Day","5"
"S-00001","CL","S-00001-156","665","665","CS","Clinical Sign","CLINICAL SIGNS","NORMAL","NORMAL","","3","2018-10-11","3","Before Dosing","1"
"S-00001","CL","S-00001-156","666","666","CS","Clinical Sign","CLINICAL SIGNS","NORMAL","NORMAL","","3","2018-10-11","3","Immediately after dosing","2"
"S-00001","CL","S-00001-156","667","667","CS","Clinical Sign","CLINICAL SIGNS","NORMAL","NORMAL","","3","2018-10-11","3","0.5h after treatment","3"
"S-00001","CL","S-00001-156","668","668","CS","Clinical Sign","CLINICAL SIGNS","NORMAL","NORMAL","","3","2018-10-11","3","Afternoon","4"
"S-00001","CL","S-00001-156","669","669","CS","Clinical Sign","CLINICAL SIGNS","NORMAL","NORMAL","","3","2018-10-11","3","End of the Day","5"
"S-00001","CL","S-00001-156","670","670","CS","Clinical Sign","CLINICAL SIGNS","NORMAL","NORMAL","","4","2018-10-12","4","Before Dosing","1"
"S-00001","CL","S-00001-156","671","671","CS","Clinical Sign","CLINICAL SIGNS","NORMAL","NORMAL","","4","2018-10-12","4","Immediately after dosing","2"
"S-00001","CL","S-00001-156","672","672","CS","Clinical Sign","CLINICAL SIGNS","NORMAL","NORMAL","","4","2018-10-12","4","0.5h after treatment","3"
"S-00001","CL","S-00001-156","673","673","CS","Clinical Sign","CLINICAL SIGNS","NORMAL","NORMAL","","4","2018-10-12","4","Afternoon","4"
"S-00001","CL","S-00001-156","674","674","CS","Clinical Sign","CLINICAL SIGNS","NORMAL","NORMAL","","4","2018-10-12","4","End of the Day","5"
"S-00001","CL","S-00001-156","675","675","CS","Clinical Sign","CLINICAL SIGNS","NORMAL","NORMAL","","5","2018-10-13","5","Before Dosing","1"
"S-00001","CL","S-00001-156","676","676","CS","Clinical Sign","CLINICAL SIGNS","NORMAL","NORMAL","","5","2018-10-13","5","Immediately after dosing","2"
"S-00001","CL","S-00001-156","677","677","CS","Clinical Sign","CLINICAL SIGNS","NORMAL","NORMAL","","6","2018-10-14","6","Before Dosing","1"
"S-00001","CL","S-00001-156","678","678","CS","Clinical Sign","CLINICAL SIGNS","NORMAL","NORMAL","","6","2018-10-14","6","Immediately after dosing","2"
"S-00001","CL","S-00001-156","679","679","CS","Clinical Sign","CLINICAL SIGNS","NORMAL","NORMAL","","7","2018-10-15","7","Before Dosing","1"
"S-00001","CL","S-00001-156","680","680","CS","Clinical Sign","CLINICAL SIGNS","NORMAL","NORMAL","","7","2018-10-15","7","Afternoon","4"
"S-00001","CL","S-00001-156","681","681","CS","Clinical Sign","CLINICAL SIGNS","NORMAL","NORMAL","","7","2018-10-15","7","End of the Day","5"
"S-00001","CL","S-00001-156","682","682","CS","Clinical Sign","CLINICAL SIGNS","NORMAL","NORMAL","","8","2018-10-16","8","Before Dosing","1"
"S-00001","CL","S-00001-156","683","683","CS","Clinical Sign","CLINICAL SIGNS","NORMAL","NORMAL","","8","2018-10-16","8","Afternoon","4"
"S-00001","CL","S-00001-156","684","684","CS","Clinical Sign","CLINICAL SIGNS","NORMAL","NORMAL","","8","2018-10-16","8","End of the Day","5"
"S-00001","CL","S-00001-156","685","685","CS","Clinical Sign","CLINICAL SIGNS","NORMAL","NORMAL","","9","2018-10-17","9","Before Dosing","1"
"S-00001","CL","S-00001-156","686","686","CS","Clinical Sign","CLINICAL SIGNS","NORMAL","NORMAL","","9","2018-10-17","9","Afternoon","4"
"S-00001","CL","S-00001-156","687","687","CS","Clinical Sign","CLINICAL SIGNS","NORMAL","NORMAL","","9","2018-10-17","9","End of the Day","5"
"S-00001","CL","S-00001-156","688","688","CS","Clinical Sign","CLINICAL SIGNS","NORMAL","NORMAL","","10","2018-10-18","10","Before Dosing","1"
"S-00001","CL","S-00001-156","689","689","CS","Clinical Sign","CLINICAL SIGNS","NORMAL","NORMAL","","10","2018-10-18","10","Afternoon","4"
"S-00001","CL","S-00001-156","690","690","CS","Clinical Sign","CLINICAL SIGNS","NORMAL","NORMAL","","10","2018-10-18","10","End of the Day","5"
"S-00001","CL","S-00001-156","691","691","CS","Clinical Sign","CLINICAL SIGNS","NORMAL","NORMAL","","11","2018-10-19","11","Before Dosing","1"
"S-00001","CL","S-00001-156","692","692","CS","Clinical Sign","CLINICAL SIGNS","NORMAL","NORMAL","","11","2018-10-19","11","Afternoon","4"
"S-00001","CL","S-00001-156","693","693","CS","Clinical Sign","CLINICAL SIGNS","NORMAL","NORMAL","","11","2018-10-19","11","End of the Day","5"
"S-00001","CL","S-00001-156","694","694","CS","Clinical Sign","CLINICAL SIGNS","NORMAL","NORMAL","","12","2018-10-20","12","Before Dosing","1"
"S-00001","CL","S-00001-156","695","695","CS","Clinical Sign","CLINICAL SIGNS","NORMAL","NORMAL","","12","2018-10-20","12","Immediately after dosing","2"
"S-00001","CL","S-00001-156","696","696","CS","Clinical Sign","CLINICAL SIGNS","NORMAL","NORMAL","","13","2018-10-21","13","Before Dosing","1"
"S-00001","CL","S-00001-156","697","697","CS","Clinical Sign","CLINICAL SIGNS","NORMAL","NORMAL","","13","2018-10-21","13","Immediately after dosing","2"
"S-00001","CL","S-00001-156","698","698","CS","Clinical Sign","CLINICAL SIGNS","NORMAL","NORMAL","","14","2018-10-22","14","Before Dosing","1"
"S-00001","CL","S-00001-156","699","699","CS","Clinical Sign","CLINICAL SIGNS","NORMAL","NORMAL","","14","2018-10-22","14","Afternoon","4"
"S-00001","CL","S-00001-156","700","700","CS","Clinical Sign","CLINICAL SIGNS","NORMAL","NORMAL","","14","2018-10-22","14","End of the Day","5"
"S-00001","CL","S-00001-156","701","701","CS","Clinical Sign","CLINICAL SIGNS","NORMAL","NORMAL","","15","2018-10-23","15","Before Dosing","1"
"S-00001","CL","S-00001-156","702","702","CS","Clinical Sign","CLINICAL SIGNS","NORMAL","NORMAL","","15","2018-10-23","15","Afternoon","4"
"S-00001","CL","S-00001-156","703","703","CS","Clinical Sign","CLINICAL SIGNS","NORMAL","NORMAL","","15","2018-10-23","15","End of the Day","5"
"S-00001","CL","S-00001-156","704","704","CS","Clinical Sign","CLINICAL SIGNS","NORMAL","NORMAL","","16","2018-10-24","16","Before Dosing","1"
"S-00001","CL","S-00001-156","705","705","CS","Clinical Sign","CLINICAL SIGNS","NORMAL","NORMAL","","16","2018-10-24","16","Afternoon","4"
"S-00001","CL","S-00001-156","706","706","CS","Clinical Sign","CLINICAL SIGNS","NORMAL","NORMAL","","16","2018-10-24","16","End of the Day","5"
"S-00001","CL","S-00001-156","707","707","CS","Clinical Sign","CLINICAL SIGNS","NORMAL","NORMAL","","17","2018-10-25","17","Before Dosing","1"
"S-00001","CL","S-00001-156","708","708","CS","Clinical Sign","CLINICAL SIGNS","NORMAL","NORMAL","","17","2018-10-25","17","Afternoon","4"
"S-00001","CL","S-00001-156","709","709","CS","Clinical Sign","CLINICAL SIGNS","NORMAL","NORMAL","","17","2018-10-25","17","End of the Day","5"
"S-00001","CL","S-00001-156","710","710","CS","Clinical Sign","CLINICAL SIGNS","NORMAL","NORMAL","","18","2018-10-26","18","Before Dosing","1"
"S-00001","CL","S-00001-156","711","711","CS","Clinical Sign","CLINICAL SIGNS","NORMAL","NORMAL","","18","2018-10-26","18","Afternoon","4"
"S-00001","CL","S-00001-156","712","712","CS","Clinical Sign","CLINICAL SIGNS","NORMAL","NORMAL","","18","2018-10-26","18","End of the Day","5"
"S-00001","CL","S-00001-156","713","713","CS","Clinical Sign","CLINICAL SIGNS","NORMAL","NORMAL","","19","2018-10-27","19","Before Dosing","1"
"S-00001","CL","S-00001-156","714","714","CS","Clinical Sign","CLINICAL SIGNS","NORMAL","NORMAL","","19","2018-10-27","19","Immediately after dosing","2"
"S-00001","CL","S-00001-156","715","715","CS","Clinical Sign","CLINICAL SIGNS","NORMAL","NORMAL","","20","2018-10-28","20","Before Dosing","1"
"S-00001","CL","S-00001-156","716","716","CS","Clinical Sign","CLINICAL SIGNS","NORMAL","NORMAL","","20","2018-10-28","20","Immediately after dosing","2"
"S-00001","CL","S-00001-156","717","717","CS","Clinical Sign","CLINICAL SIGNS","NORMAL","NORMAL","","21","2018-10-29","21","Before Dosing","1"
"S-00001","CL","S-00001-156","718","718","CS","Clinical Sign","CLINICAL SIGNS","NORMAL","NORMAL","","21","2018-10-29","21","Afternoon","4"
"S-00001","CL","S-00001-156","719","719","CS","Clinical Sign","CLINICAL SIGNS","NORMAL","NORMAL","","21","2018-10-29","21","End of the Day","5"
"S-00001","CL","S-00001-156","720","720","CS","Clinical Sign","CLINICAL SIGNS","NORMAL","NORMAL","","22","2018-10-30","22","Before Dosing","1"
"S-00001","CL","S-00001-156","721","721","CS","Clinical Sign","CLINICAL SIGNS","NORMAL","NORMAL","","22","2018-10-30","22","Afternoon","4"
"S-00001","CL","S-00001-156","722","722","CS","Clinical Sign","CLINICAL SIGNS","NORMAL","NORMAL","","22","2018-10-30","22","End of the Day","5"
"S-00001","CL","S-00001-156","723","723","CS","Clinical Sign","CLINICAL SIGNS","NORMAL","NORMAL","","23","2018-10-31","23","Before Dosing","1"
"S-00001","CL","S-00001-156","724","724","CS","Clinical Sign","CLINICAL SIGNS","NORMAL","NORMAL","","23","2018-10-31","23","Afternoon","4"
"S-00001","CL","S-00001-156","725","725","CS","Clinical Sign","CLINICAL SIGNS","NORMAL","NORMAL","","23","2018-10-31","23","End of the Day","5"
"S-00001","CL","S-00001-156","726","726","CS","Clinical Sign","CLINICAL SIGNS","NORMAL","NORMAL","","24","2018-11-01","24","Before Dosing","1"
"S-00001","CL","S-00001-156","727","727","CS","Clinical Sign","CLINICAL SIGNS","NORMAL","NORMAL","","24","2018-11-01","24","Afternoon","4"
"S-00001","CL","S-00001-156","728","728","CS","Clinical Sign","CLINICAL SIGNS","NORMAL","NORMAL","","24","2018-11-01","24","End of the Day","5"
"S-00001","CL","S-00001-156","729","729","CS","Clinical Sign","CLINICAL SIGNS","NORMAL","NORMAL","","25","2018-11-02","25","Before Dosing","1"
"S-00001","CL","S-00001-156","730","730","CS","Clinical Sign","CLINICAL SIGNS","NORMAL","NORMAL","","25","2018-11-02","25","Afternoon","4"
"S-00001","CL","S-00001-156","731","731","CS","Clinical Sign","CLINICAL SIGNS","NORMAL","NORMAL","","25","2018-11-02","25","End of the Day","5"
"S-00001","CL","S-00001-156","732","732","CS","Clinical Sign","CLINICAL SIGNS","NORMAL","NORMAL","","26","2018-11-03","26","Before Dosing","1"
"S-00001","CL","S-00001-156","733","733","CS","Clinical Sign","CLINICAL SIGNS","NORMAL","NORMAL","","26","2018-11-03","26","Immediately after dosing","2"
"S-00001","CL","S-00001-156","734","734","CS","Clinical Sign","CLINICAL SIGNS","NORMAL","NORMAL","","27","2018-11-04","27","Before Dosing","1"
"S-00001","CL","S-00001-156","735","735","CS","Clinical Sign","CLINICAL SIGNS","NORMAL","NORMAL","","27","2018-11-04","27","Immediately after dosing","2"
"S-00001","CL","S-00001-156","736","736","CS","Clinical Sign","CLINICAL SIGNS","NORMAL","NORMAL","","28","2018-11-05","28","Before Dosing","1"
"S-00001","CL","S-00001-156","737","737","CS","Clinical Sign","CLINICAL SIGNS","NORMAL","NORMAL","","28","2018-11-05","28","Afternoon","4"
"S-00001","CL","S-00001-156","738","738","CS","Clinical Sign","CLINICAL SIGNS","NORMAL","NORMAL","","28","2018-11-05","28","End of the Day","5"
"S-00001","CL","S-00001-156","739","739","CS","Clinical Sign","CLINICAL SIGNS","NORMAL","NORMAL","","29","2018-11-06","29","Before Dosing","1"
"S-00001","CL","S-00001-156","740","740","CS","Clinical Sign","CLINICAL SIGNS","NORMAL","NORMAL","","29","2018-11-06","29","Afternoon","4"
"S-00001","CL","S-00001-156","741","741","CS","Clinical Sign","CLINICAL SIGNS","NORMAL","NORMAL","","29","2018-11-06","29","End of the Day","5"
"S-00001","CL","S-00001-156","742","742","CS","Clinical Sign","CLINICAL SIGNS","NORMAL","NORMAL","","30","2018-11-07","30","Before Dosing","1"
"S-00001","CL","S-00001-156","743","743","CS","Clinical Sign","CLINICAL SIGNS","NORMAL","NORMAL","","30","2018-11-07","30","Afternoon","4"
"S-00001","CL","S-00001-156","744","744","CS","Clinical Sign","CLINICAL SIGNS","NORMAL","NORMAL","","30","2018-11-07","30","End of the Day","5"
"S-00001","CL","S-00001-156","745","745","CS","Clinical Sign","CLINICAL SIGNS","NORMAL","NORMAL","","31","2018-11-08","31","Before Dosing","1"
"S-00001","CL","S-00001-156","746","746","CS","Clinical Sign","CLINICAL SIGNS","NORMAL","NORMAL","","31","2018-11-08","31","Afternoon","4"
"S-00001","CL","S-00001-156","747","747","CS","Clinical Sign","CLINICAL SIGNS","NORMAL","NORMAL","","31","2018-11-08","31","End of the Day","5"
"S-00001","CL","S-00001-156","748","748","CS","Clinical Sign","CLINICAL SIGNS","NORMAL","NORMAL","","32","2018-11-09","32","Before Dosing","1"
"S-00001","CL","S-00001-156","749","749","CS","Clinical Sign","CLINICAL SIGNS","NORMAL","NORMAL","","32","2018-11-09","32","Afternoon","4"
"S-00001","CL","S-00001-156","750","750","CS","Clinical Sign","CLINICAL SIGNS","NORMAL","NORMAL","","32","2018-11-09","32","End of the Day","5"
"S-00001","CL","S-00001-156","751","751","CS","Clinical Sign","CLINICAL SIGNS","NORMAL","NORMAL","","33","2018-11-10","33","Before Dosing","1"
"S-00001","CL","S-00001-156","752","752","CS","Clinical Sign","CLINICAL SIGNS","NORMAL","NORMAL","","33","2018-11-10","33","Immediately after dosing","2"
"S-00001","CL","S-00001-156","753","753","CS","Clinical Sign","CLINICAL SIGNS","NORMAL","NORMAL","","34","2018-11-11","34","Before Dosing","1"
"S-00001","CL","S-00001-156","754","754","CS","Clinical Sign","CLINICAL SIGNS","NORMAL","NORMAL","","34","2018-11-11","34","Immediately after dosing","2"
"S-00001","CL","S-00001-156","755","755","CS","Clinical Sign","CLINICAL SIGNS","NORMAL","NORMAL","","35","2018-11-12","35","Before Dosing","1"
"S-00001","CL","S-00001-156","756","756","CS","Clinical Sign","CLINICAL SIGNS","NORMAL","NORMAL","","35","2018-11-12","35","Afternoon","4"
"S-00001","CL","S-00001-156","757","757","CS","Clinical Sign","CLINICAL SIGNS","NORMAL","NORMAL","","35","2018-11-12","35","End of the Day","5"
"S-00001","CL","S-00001-156","758","758","CS","Clinical Sign","CLINICAL SIGNS","NORMAL","NORMAL","","36","2018-11-13","36","Before Dosing","1"
"S-00001","CL","S-00001-156","759","759","CS","Clinical Sign","CLINICAL SIGNS","NORMAL","NORMAL","","36","2018-11-13","36","Afternoon","4"
"S-00001","CL","S-00001-156","760","760","CS","Clinical Sign","CLINICAL SIGNS","NORMAL","NORMAL","","36","2018-11-13","36","End of the Day","5"
"S-00001","CL","S-00001-156","761","761","CS","Clinical Sign","CLINICAL SIGNS","NORMAL","NORMAL","","37","2018-11-14","37","Before Dosing","1"
"S-00001","CL","S-00001-156","762","762","CS","Clinical Sign","CLINICAL SIGNS","NORMAL","NORMAL","","37","2018-11-14","37","Afternoon","4"
"S-00001","CL","S-00001-156","763","763","CS","Clinical Sign","CLINICAL SIGNS","NORMAL","NORMAL","","37","2018-11-14","37","End of the Day","5"
"S-00001","CL","S-00001-156","764","764","CS","Clinical Sign","CLINICAL SIGNS","NORMAL","NORMAL","","38","2018-11-15","38","Before Dosing","1"
"S-00001","CL","S-00001-156","765","765","CS","Clinical Sign","CLINICAL SIGNS","NORMAL","NORMAL","","38","2018-11-15","38","Afternoon","4"
"S-00001","CL","S-00001-156","766","766","CS","Clinical Sign","CLINICAL SIGNS","NORMAL","NORMAL","","38","2018-11-15","38","End of the Day","5"
"S-00001","CL","S-00001-156","767","767","CS","Clinical Sign","CLINICAL SIGNS","NORMAL","NORMAL","","39","2018-11-16","39","Before Dosing","1"
"S-00001","CL","S-00001-156","768","768","CS","Clinical Sign","CLINICAL SIGNS","NORMAL","NORMAL","","39","2018-11-16","39","Afternoon","4"
"S-00001","CL","S-00001-156","769","769","CS","Clinical Sign","CLINICAL SIGNS","NORMAL","NORMAL","","39","2018-11-16","39","End of the Day","5"
"S-00001","CL","S-00001-156","770","770","CS","Clinical Sign","CLINICAL SIGNS","NORMAL","NORMAL","","40","2018-11-17","40","Before Dosing","1"
"S-00001","CL","S-00001-156","771","771","CS","Clinical Sign","CLINICAL SIGNS","NORMAL","NORMAL","","40","2018-11-17","40","Immediately after dosing","2"
"S-00001","CL","S-00001-156","772","772","CS","Clinical Sign","CLINICAL SIGNS","NORMAL","NORMAL","","41","2018-11-18","41","Before Dosing","1"
"S-00001","CL","S-00001-156","773","773","CS","Clinical Sign","CLINICAL SIGNS","NORMAL","NORMAL","","41","2018-11-18","41","Immediately after dosing","2"
"S-00001","CL","S-00001-156","774","774","CS","Clinical Sign","CLINICAL SIGNS","NORMAL","NORMAL","","42","2018-11-19","42","Before Dosing","1"
"S-00001","CL","S-00001-156","775","775","CS","Clinical Sign","CLINICAL SIGNS","NORMAL","NORMAL","","42","2018-11-19","42","Afternoon","4"
"S-00001","CL","S-00001-156","776","776","CS","Clinical Sign","CLINICAL SIGNS","NORMAL","NORMAL","","42","2018-11-19","42","End of the Day","5"
"S-00001","CL","S-00001-156","777","777","CS","Clinical Sign","CLINICAL SIGNS","NORMAL","NORMAL","","43","2018-11-20","43","Before Dosing","1"
"S-00001","CL","S-00001-156","778","778","CS","Clinical Sign","CLINICAL SIGNS","NORMAL","NORMAL","","43","2018-11-20","43","Afternoon","4"
"S-00001","CL","S-00001-156","779","779","CS","Clinical Sign","CLINICAL SIGNS","NORMAL","NORMAL","","43","2018-11-20","43","End of the Day","5"
"S-00001","CL","S-00001-156","780","780","CS","Clinical Sign","CLINICAL SIGNS","NORMAL","NORMAL","","44","2018-11-21","44","Before Dosing","1"
"S-00001","CL","S-00001-156","781","781","CS","Clinical Sign","CLINICAL SIGNS","NORMAL","NORMAL","","44","2018-11-21","44","Afternoon","4"
"S-00001","CL","S-00001-156","782","782","CS","Clinical Sign","CLINICAL SIGNS","NORMAL","NORMAL","","44","2018-11-21","44","End of the Day","5"
"S-00001","CL","S-00001-156","783","783","CS","Clinical Sign","CLINICAL SIGNS","NORMAL","NORMAL","","45","2018-11-22","45","Before Dosing","1"
"S-00001","CL","S-00001-156","784","784","CS","Clinical Sign","CLINICAL SIGNS","NORMAL","NORMAL","","45","2018-11-22","45","Afternoon","4"
"S-00001","CL","S-00001-156","785","785","CS","Clinical Sign","CLINICAL SIGNS","NORMAL","NORMAL","","45","2018-11-22","45","End of the Day","5"
"S-00001","CL","S-00001-156","786","786","CS","Clinical Sign","CLINICAL SIGNS","NORMAL","NORMAL","","46","2018-11-23","46","Before Dosing","1"
"S-00001","CL","S-00001-251","787","787","CS","Clinical Sign","CLINICAL SIGNS","NORMAL","NORMAL","","1","2018-10-09","1","Immediately after dosing","2"
"S-00001","CL","S-00001-251","788","788","CS","Clinical Sign","CLINICAL SIGNS","NORMAL","NORMAL","","1","2018-10-09","1","0.5h after treatment","3"
"S-00001","CL","S-00001-251","789","789","CS","Clinical Sign","CLINICAL SIGNS","NORMAL","NORMAL","","1","2018-10-09","1","Afternoon","4"
"S-00001","CL","S-00001-251","790","790","CS","Clinical Sign","CLINICAL SIGNS","NORMAL","NORMAL","","1","2018-10-09","1","End of the Day","5"
"S-00001","CL","S-00001-251","791","791","CS","Clinical Sign","CLINICAL SIGNS","NORMAL","NORMAL","","2","2018-10-10","2","Before Dosing","1"
"S-00001","CL","S-00001-251","792","792","CS","Clinical Sign","CLINICAL SIGNS","NORMAL","NORMAL","","2","2018-10-10","2","Immediately after dosing","2"
"S-00001","CL","S-00001-251","793","793","CS","Clinical Sign","CLINICAL SIGNS","NORMAL","NORMAL","","2","2018-10-10","2","0.5h after treatment","3"
"S-00001","CL","S-00001-251","794","794","CS","Clinical Sign","CLINICAL SIGNS","NORMAL","NORMAL","","2","2018-10-10","2","Afternoon","4"
"S-00001","CL","S-00001-251","795","795","CS","Clinical Sign","CLINICAL SIGNS","NORMAL","NORMAL","","2","2018-10-10","2","End of the Day","5"
"S-00001","CL","S-00001-251","796","796","CS","Clinical Sign","CLINICAL SIGNS","NORMAL","NORMAL","","3","2018-10-11","3","Before Dosing","1"
"S-00001","CL","S-00001-251","797","797","CS","Clinical Sign","CLINICAL SIGNS","NORMAL","NORMAL","","3","2018-10-11","3","Immediately after dosing","2"
"S-00001","CL","S-00001-251","798","798","CS","Clinical Sign","CLINICAL SIGNS","NORMAL","NORMAL","","3","2018-10-11","3","0.5h after treatment","3"
"S-00001","CL","S-00001-251","799","799","CS","Clinical Sign","CLINICAL SIGNS","NORMAL","NORMAL","","3","2018-10-11","3","Afternoon","4"
"S-00001","CL","S-00001-251","800","800","CS","Clinical Sign","CLINICAL SIGNS","NORMAL","NORMAL","","3","2018-10-11","3","End of the Day","5"
"S-00001","CL","S-00001-251","801","801","CS","Clinical Sign","CLINICAL SIGNS","NORMAL","NORMAL","","4","2018-10-12","4","Before Dosing","1"
"S-00001","CL","S-00001-251","802","802","CS","Clinical Sign","CLINICAL SIGNS","NORMAL","NORMAL","","4","2018-10-12","4","Immediately after dosing","2"
"S-00001","CL","S-00001-251","803","803","CS","Clinical Sign","CLINICAL SIGNS","NORMAL","NORMAL","","4","2018-10-12","4","0.5h after treatment","3"
"S-00001","CL","S-00001-251","804","804","CS","Clinical Sign","CLINICAL SIGNS","NORMAL","NORMAL","","4","2018-10-12","4","Afternoon","4"
"S-00001","CL","S-00001-251","805","805","CS","Clinical Sign","CLINICAL SIGNS","NORMAL","NORMAL","","4","2018-10-12","4","End of the Day","5"
"S-00001","CL","S-00001-251","806","806","CS","Clinical Sign","CLINICAL SIGNS","NORMAL","NORMAL","","5","2018-10-13","5","Before Dosing","1"
"S-00001","CL","S-00001-251","807","807","CS","Clinical Sign","CLINICAL SIGNS","NORMAL","NORMAL","","5","2018-10-13","5","Immediately after dosing","2"
"S-00001","CL","S-00001-251","808","808","CS","Clinical Sign","CLINICAL SIGNS","NORMAL","NORMAL","","6","2018-10-14","6","Before Dosing","1"
"S-00001","CL","S-00001-251","809","809","CS","Clinical Sign","CLINICAL SIGNS","NORMAL","NORMAL","","6","2018-10-14","6","Immediately after dosing","2"
"S-00001","CL","S-00001-251","810","810","CS","Clinical Sign","CLINICAL SIGNS","NORMAL","NORMAL","","7","2018-10-15","7","Before Dosing","1"
"S-00001","CL","S-00001-251","811","811","CS","Clinical Sign","CLINICAL SIGNS","NORMAL","NORMAL","","7","2018-10-15","7","Afternoon","4"
"S-00001","CL","S-00001-251","812","812","CS","Clinical Sign","CLINICAL SIGNS","NORMAL","NORMAL","","7","2018-10-15","7","End of the Day","5"
"S-00001","CL","S-00001-251","813","813","CS","Clinical Sign","CLINICAL SIGNS","NORMAL","NORMAL","","8","2018-10-16","8","Before Dosing","1"
"S-00001","CL","S-00001-251","814","814","CS","Clinical Sign","CLINICAL SIGNS","NORMAL","NORMAL","","8","2018-10-16","8","Afternoon","4"
"S-00001","CL","S-00001-251","815","815","CS","Clinical Sign","CLINICAL SIGNS","NORMAL","NORMAL","","8","2018-10-16","8","End of the Day","5"
"S-00001","CL","S-00001-251","816","816","CS","Clinical Sign","CLINICAL SIGNS","NORMAL","NORMAL","","9","2018-10-17","9","Before Dosing","1"
"S-00001","CL","S-00001-251","817","817","CS","Clinical Sign","CLINICAL SIGNS","NORMAL","NORMAL","","9","2018-10-17","9","Afternoon","4"
"S-00001","CL","S-00001-251","818","818","CS","Clinical Sign","CLINICAL SIGNS","NORMAL","NORMAL","","9","2018-10-17","9","End of the Day","5"
"S-00001","CL","S-00001-251","819","819","CS","Clinical Sign","CLINICAL SIGNS","NORMAL","NORMAL","","10","2018-10-18","10","Before Dosing","1"
"S-00001","CL","S-00001-251","820","820","CS","Clinical Sign","CLINICAL SIGNS","NORMAL","NORMAL","","10","2018-10-18","10","Afternoon","4"
"S-00001","CL","S-00001-251","821","821","CS","Clinical Sign","CLINICAL SIGNS","NORMAL","NORMAL","","10","2018-10-18","10","End of the Day","5"
"S-00001","CL","S-00001-251","822","822","CS","Clinical Sign","CLINICAL SIGNS","NORMAL","NORMAL","","11","2018-10-19","11","Before Dosing","1"
"S-00001","CL","S-00001-251","823","823","CS","Clinical Sign","CLINICAL SIGNS","NORMAL","NORMAL","","11","2018-10-19","11","Afternoon","4"
"S-00001","CL","S-00001-251","824","824","CS","Clinical Sign","CLINICAL SIGNS","NORMAL","NORMAL","","11","2018-10-19","11","End of the Day","5"
"S-00001","CL","S-00001-251","825","825","CS","Clinical Sign","CLINICAL SIGNS","NORMAL","NORMAL","","12","2018-10-20","12","Before Dosing","1"
"S-00001","CL","S-00001-251","826","826","CS","Clinical Sign","CLINICAL SIGNS","NORMAL","NORMAL","","12","2018-10-20","12","Immediately after dosing","2"
"S-00001","CL","S-00001-251","827","827","CS","Clinical Sign","CLINICAL SIGNS","NORMAL","NORMAL","","13","2018-10-21","13","Before Dosing","1"
"S-00001","CL","S-00001-251","828","828","CS","Clinical Sign","CLINICAL SIGNS","NORMAL","NORMAL","","13","2018-10-21","13","Immediately after dosing","2"
"S-00001","CL","S-00001-251","829","829","CS","Clinical Sign","CLINICAL SIGNS","NORMAL","NORMAL","","14","2018-10-22","14","Before Dosing","1"
"S-00001","CL","S-00001-251","830","830","CS","Clinical Sign","CLINICAL SIGNS","NORMAL","NORMAL","","14","2018-10-22","14","Afternoon","4"
"S-00001","CL","S-00001-251","831","831","CS","Clinical Sign","CLINICAL SIGNS","NORMAL","NORMAL","","14","2018-10-22","14","End of the Day","5"
"S-00001","CL","S-00001-251","832","832","CS","Clinical Sign","CLINICAL SIGNS","NORMAL","NORMAL","","15","2018-10-23","15","Before Dosing","1"
"S-00001","CL","S-00001-251","833","833","CS","Clinical Sign","CLINICAL SIGNS","NORMAL","NORMAL","","15","2018-10-23","15","Afternoon","4"
"S-00001","CL","S-00001-251","834","834","CS","Clinical Sign","CLINICAL SIGNS","NORMAL","NORMAL","","15","2018-10-23","15","End of the Day","5"
"S-00001","CL","S-00001-251","835","835","CS","Clinical Sign","CLINICAL SIGNS","NORMAL","NORMAL","","16","2018-10-24","16","Before Dosing","1"
"S-00001","CL","S-00001-251","836","836","CS","Clinical Sign","CLINICAL SIGNS","NORMAL","NORMAL","","16","2018-10-24","16","Afternoon","4"
"S-00001","CL","S-00001-251","837","837","CS","Clinical Sign","CLINICAL SIGNS","NORMAL","NORMAL","","16","2018-10-24","16","End of the Day","5"
"S-00001","CL","S-00001-251","838","838","CS","Clinical Sign","CLINICAL SIGNS","NORMAL","NORMAL","","17","2018-10-25","17","Before Dosing","1"
"S-00001","CL","S-00001-251","839","839","CS","Clinical Sign","CLINICAL SIGNS","NORMAL","NORMAL","","17","2018-10-25","17","Afternoon","4"
"S-00001","CL","S-00001-251","840","840","CS","Clinical Sign","CLINICAL SIGNS","NORMAL","NORMAL","","17","2018-10-25","17","End of the Day","5"
"S-00001","CL","S-00001-251","841","841","CS","Clinical Sign","CLINICAL SIGNS","NORMAL","NORMAL","","18","2018-10-26","18","Before Dosing","1"
"S-00001","CL","S-00001-251","842","842","CS","Clinical Sign","CLINICAL SIGNS","NORMAL","NORMAL","","18","2018-10-26","18","Afternoon","4"
"S-00001","CL","S-00001-251","843","843","CS","Clinical Sign","CLINICAL SIGNS","NORMAL","NORMAL","","18","2018-10-26","18","End of the Day","5"
"S-00001","CL","S-00001-251","844","844","CS","Clinical Sign","CLINICAL SIGNS","NORMAL","NORMAL","","19","2018-10-27","19","Before Dosing","1"
"S-00001","CL","S-00001-251","845","845","CS","Clinical Sign","CLINICAL SIGNS","NORMAL","NORMAL","","19","2018-10-27","19","Immediately after dosing","2"
"S-00001","CL","S-00001-251","846","846","CS","Clinical Sign","CLINICAL SIGNS","NORMAL","NORMAL","","20","2018-10-28","20","Before Dosing","1"
"S-00001","CL","S-00001-251","847","847","CS","Clinical Sign","CLINICAL SIGNS","NORMAL","NORMAL","","20","2018-10-28","20","Immediately after dosing","2"
"S-00001","CL","S-00001-251","848","848","CS","Clinical Sign","CLINICAL SIGNS","NORMAL","NORMAL","","21","2018-10-29","21","Before Dosing","1"
"S-00001","CL","S-00001-251","849","849","CS","Clinical Sign","CLINICAL SIGNS","NORMAL","NORMAL","","21","2018-10-29","21","Afternoon","4"
"S-00001","CL","S-00001-251","850","850","CS","Clinical Sign","CLINICAL SIGNS","NORMAL","NORMAL","","21","2018-10-29","21","End of the Day","5"
"S-00001","CL","S-00001-251","851","851","CS","Clinical Sign","CLINICAL SIGNS","NORMAL","NORMAL","","22","2018-10-30","22","Before Dosing","1"
"S-00001","CL","S-00001-251","852","852","CS","Clinical Sign","CLINICAL SIGNS","NORMAL","NORMAL","","22","2018-10-30","22","Afternoon","4"
"S-00001","CL","S-00001-251","853","853","CS","Clinical Sign","CLINICAL SIGNS","NORMAL","NORMAL","","22","2018-10-30","22","End of the Day","5"
"S-00001","CL","S-00001-251","854","854","CS","Clinical Sign","CLINICAL SIGNS","NORMAL","NORMAL","","23","2018-10-31","23","Before Dosing","1"
"S-00001","CL","S-00001-251","855","855","CS","Clinical Sign","CLINICAL SIGNS","NORMAL","NORMAL","","23","2018-10-31","23","Afternoon","4"
"S-00001","CL","S-00001-251","856","856","CS","Clinical Sign","CLINICAL SIGNS","NORMAL","NORMAL","","23","2018-10-31","23","End of the Day","5"
"S-00001","CL","S-00001-251","857","857","CS","Clinical Sign","CLINICAL SIGNS","NORMAL","NORMAL","","24","2018-11-01","24","Before Dosing","1"
"S-00001","CL","S-00001-251","858","858","CS","Clinical Sign","CLINICAL SIGNS","NORMAL","NORMAL","","24","2018-11-01","24","Afternoon","4"
"S-00001","CL","S-00001-251","859","859","CS","Clinical Sign","CLINICAL SIGNS","NORMAL","NORMAL","","24","2018-11-01","24","End of the Day","5"
"S-00001","CL","S-00001-251","860","860","CS","Clinical Sign","CLINICAL SIGNS","NORMAL","NORMAL","","25","2018-11-02","25","Before Dosing","1"
"S-00001","CL","S-00001-251","861","861","CS","Clinical Sign","CLINICAL SIGNS","NORMAL","NORMAL","","25","2018-11-02","25","Afternoon","4"
"S-00001","CL","S-00001-251","862","862","CS","Clinical Sign","CLINICAL SIGNS","NORMAL","NORMAL","","25","2018-11-02","25","End of the Day","5"
"S-00001","CL","S-00001-251","863","863","CS","Clinical Sign","CLINICAL SIGNS","NORMAL","NORMAL","","26","2018-11-03","26","Before Dosing","1"
"S-00001","CL","S-00001-251","864","864","CS","Clinical Sign","CLINICAL SIGNS","NORMAL","NORMAL","","26","2018-11-03","26","Immediately after dosing","2"
"S-00001","CL","S-00001-251","865","865","CS","Clinical Sign","CLINICAL SIGNS","NORMAL","NORMAL","","27","2018-11-04","27","Before Dosing","1"
"S-00001","CL","S-00001-251","866","866","CS","Clinical Sign","CLINICAL SIGNS","NORMAL","NORMAL","","27","2018-11-04","27","Immediately after dosing","2"
"S-00001","CL","S-00001-251","867","867","CS","Clinical Sign","CLINICAL SIGNS","NORMAL","NORMAL","","28","2018-11-05","28","Before Dosing","1"
"S-00001","CL","S-00001-251","868","868","CS","Clinical Sign","CLINICAL SIGNS","NORMAL","NORMAL","","28","2018-11-05","28","Afternoon","4"
"S-00001","CL","S-00001-251","869","869","CS","Clinical Sign","CLINICAL SIGNS","NORMAL","NORMAL","","28","2018-11-05","28","End of the Day","5"
"S-00001","CL","S-00001-251","870","870","CS","Clinical Sign","CLINICAL SIGNS","NORMAL","NORMAL","","29","2018-11-06","29","Before Dosing","1"
"S-00001","CL","S-00001-251","871","871","CS","Clinical Sign","CLINICAL SIGNS","NORMAL","NORMAL","","29","2018-11-06","29","Afternoon","4"
"S-00001","CL","S-00001-251","872","872","CS","Clinical Sign","CLINICAL SIGNS","NORMAL","NORMAL","","29","2018-11-06","29","End of the Day","5"
"S-00001","CL","S-00001-251","873","873","CS","Clinical Sign","CLINICAL SIGNS","NORMAL","NORMAL","","30","2018-11-07","30","Before Dosing","1"
"S-00001","CL","S-00001-251","874","874","CS","Clinical Sign","CLINICAL SIGNS","NORMAL","NORMAL","","30","2018-11-07","30","Afternoon","4"
"S-00001","CL","S-00001-251","875","875","CS","Clinical Sign","CLINICAL SIGNS","NORMAL","NORMAL","","30","2018-11-07","30","End of the Day","5"
"S-00001","CL","S-00001-251","876","876","CS","Clinical Sign","CLINICAL SIGNS","NORMAL","NORMAL","","31","2018-11-08","31","Before Dosing","1"
"S-00001","CL","S-00001-251","877","877","CS","Clinical Sign","CLINICAL SIGNS","NORMAL","NORMAL","","31","2018-11-08","31","Afternoon","4"
"S-00001","CL","S-00001-251","878","878","CS","Clinical Sign","CLINICAL SIGNS","NORMAL","NORMAL","","31","2018-11-08","31","End of the Day","5"
"S-00001","CL","S-00001-251","879","879","CS","Clinical Sign","CLINICAL SIGNS","NORMAL","NORMAL","","32","2018-11-09","32","Before Dosing","1"
"S-00001","CL","S-00001-251","880","880","CS","Clinical Sign","CLINICAL SIGNS","NORMAL","NORMAL","","32","2018-11-09","32","Afternoon","4"
"S-00001","CL","S-00001-251","881","881","CS","Clinical Sign","CLINICAL SIGNS","NORMAL","NORMAL","","32","2018-11-09","32","End of the Day","5"
"S-00001","CL","S-00001-251","882","882","CS","Clinical Sign","CLINICAL SIGNS","NORMAL","NORMAL","","33","2018-11-10","33","Before Dosing","1"
"S-00001","CL","S-00001-251","883","883","CS","Clinical Sign","CLINICAL SIGNS","NORMAL","NORMAL","","33","2018-11-10","33","Immediately after dosing","2"
"S-00001","CL","S-00001-251","884","884","CS","Clinical Sign","CLINICAL SIGNS","NORMAL","NORMAL","","34","2018-11-11","34","Before Dosing","1"
"S-00001","CL","S-00001-251","885","885","CS","Clinical Sign","CLINICAL SIGNS","NORMAL","NORMAL","","34","2018-11-11","34","Immediately after dosing","2"
"S-00001","CL","S-00001-251","886","886","CS","Clinical Sign","CLINICAL SIGNS","NORMAL","NORMAL","","35","2018-11-12","35","Before Dosing","1"
"S-00001","CL","S-00001-251","887","887","CS","Clinical Sign","CLINICAL SIGNS","NORMAL","NORMAL","","35","2018-11-12","35","Afternoon","4"
"S-00001","CL","S-00001-251","888","888","CS","Clinical Sign","CLINICAL SIGNS","NORMAL","NORMAL","","35","2018-11-12","35","End of the Day","5"
"S-00001","CL","S-00001-251","889","889","CS","Clinical Sign","CLINICAL SIGNS","NORMAL","NORMAL","","36","2018-11-13","36","Before Dosing","1"
"S-00001","CL","S-00001-251","890","890","CS","Clinical Sign","CLINICAL SIGNS","NORMAL","NORMAL","","36","2018-11-13","36","Afternoon","4"
"S-00001","CL","S-00001-251","891","891","CS","Clinical Sign","CLINICAL SIGNS","NORMAL","NORMAL","","36","2018-11-13","36","End of the Day","5"
"S-00001","CL","S-00001-251","892","892","CS","Clinical Sign","CLINICAL SIGNS","NORMAL","NORMAL","","37","2018-11-14","37","Before Dosing","1"
"S-00001","CL","S-00001-251","893","893","CS","Clinical Sign","CLINICAL SIGNS","NORMAL","NORMAL","","37","2018-11-14","37","Afternoon","4"
"S-00001","CL","S-00001-251","894","894","CS","Clinical Sign","CLINICAL SIGNS","NORMAL","NORMAL","","37","2018-11-14","37","End of the Day","5"
"S-00001","CL","S-00001-251","895","895","CS","Clinical Sign","CLINICAL SIGNS","NORMAL","NORMAL","","38","2018-11-15","38","Before Dosing","1"
"S-00001","CL","S-00001-251","896","896","CS","Clinical Sign","CLINICAL SIGNS","NORMAL","NORMAL","","38","2018-11-15","38","Afternoon","4"
"S-00001","CL","S-00001-251","897","897","CS","Clinical Sign","CLINICAL SIGNS","NORMAL","NORMAL","","38","2018-11-15","38","End of the Day","5"
"S-00001","CL","S-00001-251","898","898","CS","Clinical Sign","CLINICAL SIGNS","NORMAL","NORMAL","","39","2018-11-16","39","Before Dosing","1"
"S-00001","CL","S-00001-251","899","899","CS","Clinical Sign","CLINICAL SIGNS","NORMAL","NORMAL","","39","2018-11-16","39","Afternoon","4"
"S-00001","CL","S-00001-251","900","900","CS","Clinical Sign","CLINICAL SIGNS","NORMAL","NORMAL","","39","2018-11-16","39","End of the Day","5"
"S-00001","CL","S-00001-251","901","901","CS","Clinical Sign","CLINICAL SIGNS","NORMAL","NORMAL","","40","2018-11-17","40","Before Dosing","1"
"S-00001","CL","S-00001-251","902","902","CS","Clinical Sign","CLINICAL SIGNS","NORMAL","NORMAL","","40","2018-11-17","40","Immediately after dosing","2"
"S-00001","CL","S-00001-251","903","903","CS","Clinical Sign","CLINICAL SIGNS","NORMAL","NORMAL","","41","2018-11-18","41","Before Dosing","1"
"S-00001","CL","S-00001-251","904","904","CS","Clinical Sign","CLINICAL SIGNS","NORMAL","NORMAL","","41","2018-11-18","41","Immediately after dosing","2"
"S-00001","CL","S-00001-251","905","905","CS","Clinical Sign","CLINICAL SIGNS","NORMAL","NORMAL","","42","2018-11-19","42","Before Dosing","1"
"S-00001","CL","S-00001-251","906","906","CS","Clinical Sign","CLINICAL SIGNS","NORMAL","NORMAL","","42","2018-11-19","42","Afternoon","4"
"S-00001","CL","S-00001-251","907","907","CS","Clinical Sign","CLINICAL SIGNS","NORMAL","NORMAL","","42","2018-11-19","42","End of the Day","5"
"S-00001","CL","S-00001-251","908","908","CS","Clinical Sign","CLINICAL SIGNS","NORMAL","NORMAL","","43","2018-11-20","43","Before Dosing","1"
"S-00001","CL","S-00001-251","909","909","CS","Clinical Sign","CLINICAL SIGNS","NORMAL","NORMAL","","43","2018-11-20","43","Afternoon","4"
"S-00001","CL","S-00001-251","910","910","CS","Clinical Sign","CLINICAL SIGNS","NORMAL","NORMAL","","43","2018-11-20","43","End of the Day","5"
"S-00001","CL","S-00001-251","911","911","CS","Clinical Sign","CLINICAL SIGNS","NORMAL","NORMAL","","44","2018-11-21","44","Before Dosing","1"
"S-00001","CL","S-00001-251","912","912","CS","Clinical Sign","CLINICAL SIGNS","NORMAL","NORMAL","","44","2018-11-21","44","Afternoon","4"
"S-00001","CL","S-00001-251","913","913","CS","Clinical Sign","CLINICAL SIGNS","NORMAL","NORMAL","","44","2018-11-21","44","End of the Day","5"
"S-00001","CL","S-00001-251","914","914","CS","Clinical Sign","CLINICAL SIGNS","NORMAL","NORMAL","","45","2018-11-22","45","Before Dosing","1"
"S-00001","CL","S-00001-251","915","915","CS","Clinical Sign","CLINICAL SIGNS","NORMAL","NORMAL","","45","2018-11-22","45","Afternoon","4"
"S-00001","CL","S-00001-251","916","916","CS","Clinical Sign","CLINICAL SIGNS","NORMAL","NORMAL","","45","2018-11-22","45","End of the Day","5"
"S-00001","CL","S-00001-251","917","917","CS","Clinical Sign","CLINICAL SIGNS","NORMAL","NORMAL","","46","2018-11-23","46","Before Dosing","1"
"S-00001","CL","S-00001-252","918","918","CS","Clinical Sign","CLINICAL SIGNS","NORMAL","NORMAL","","1","2018-10-09","1","Immediately after dosing","2"
"S-00001","CL","S-00001-252","919","919","CS","Clinical Sign","CLINICAL SIGNS","NORMAL","NORMAL","","1","2018-10-09","1","0.5h after treatment","3"
"S-00001","CL","S-00001-252","920","920","CS","Clinical Sign","CLINICAL SIGNS","NORMAL","NORMAL","","1","2018-10-09","1","Afternoon","4"
"S-00001","CL","S-00001-252","921","921","CS","Clinical Sign","CLINICAL SIGNS","NORMAL","NORMAL","","1","2018-10-09","1","End of the Day","5"
"S-00001","CL","S-00001-252","922","922","CS","Clinical Sign","CLINICAL SIGNS","NORMAL","NORMAL","","2","2018-10-10","2","Before Dosing","1"
"S-00001","CL","S-00001-252","923","923","CS","Clinical Sign","CLINICAL SIGNS","NORMAL","NORMAL","","2","2018-10-10","2","Immediately after dosing","2"
"S-00001","CL","S-00001-252","924","924","CS","Clinical Sign","CLINICAL SIGNS","NORMAL","NORMAL","","2","2018-10-10","2","0.5h after treatment","3"
"S-00001","CL","S-00001-252","925","925","CS","Clinical Sign","CLINICAL SIGNS","NORMAL","NORMAL","","2","2018-10-10","2","Afternoon","4"
"S-00001","CL","S-00001-252","926","926","CS","Clinical Sign","CLINICAL SIGNS","NORMAL","NORMAL","","2","2018-10-10","2","End of the Day","5"
"S-00001","CL","S-00001-252","927","927","CS","Clinical Sign","CLINICAL SIGNS","NORMAL","NORMAL","","3","2018-10-11","3","Before Dosing","1"
"S-00001","CL","S-00001-252","928","928","CS","Clinical Sign","CLINICAL SIGNS","NORMAL","NORMAL","","3","2018-10-11","3","Immediately after dosing","2"
"S-00001","CL","S-00001-252","929","929","CS","Clinical Sign","CLINICAL SIGNS","NORMAL","NORMAL","","3","2018-10-11","3","0.5h after treatment","3"
"S-00001","CL","S-00001-252","930","930","CS","Clinical Sign","CLINICAL SIGNS","NORMAL","NORMAL","","3","2018-10-11","3","Afternoon","4"
"S-00001","CL","S-00001-252","931","931","CS","Clinical Sign","CLINICAL SIGNS","NORMAL","NORMAL","","3","2018-10-11","3","End of the Day","5"
"S-00001","CL","S-00001-252","932","932","CS","Clinical Sign","CLINICAL SIGNS","NORMAL","NORMAL","","4","2018-10-12","4","Before Dosing","1"
"S-00001","CL","S-00001-252","933","933","CS","Clinical Sign","CLINICAL SIGNS","NORMAL","NORMAL","","4","2018-10-12","4","Immediately after dosing","2"
"S-00001","CL","S-00001-252","934","934","CS","Clinical Sign","CLINICAL SIGNS","NORMAL","NORMAL","","4","2018-10-12","4","0.5h after treatment","3"
"S-00001","CL","S-00001-252","935","935","CS","Clinical Sign","CLINICAL SIGNS","NORMAL","NORMAL","","4","2018-10-12","4","Afternoon","4"
"S-00001","CL","S-00001-252","936","936","CS","Clinical Sign","CLINICAL SIGNS","NORMAL","NORMAL","","4","2018-10-12","4","End of the Day","5"
"S-00001","CL","S-00001-252","937","937","CS","Clinical Sign","CLINICAL SIGNS","NORMAL","NORMAL","","5","2018-10-13","5","Before Dosing","1"
"S-00001","CL","S-00001-252","938","938","CS","Clinical Sign","CLINICAL SIGNS","NORMAL","NORMAL","","5","2018-10-13","5","Immediately after dosing","2"
"S-00001","CL","S-00001-252","939","939","CS","Clinical Sign","CLINICAL SIGNS","NORMAL","NORMAL","","6","2018-10-14","6","Before Dosing","1"
"S-00001","CL","S-00001-252","940","940","CS","Clinical Sign","CLINICAL SIGNS","NORMAL","NORMAL","","6","2018-10-14","6","Immediately after dosing","2"
"S-00001","CL","S-00001-252","941","941","CS","Clinical Sign","CLINICAL SIGNS","NORMAL","NORMAL","","7","2018-10-15","7","Before Dosing","1"
"S-00001","CL","S-00001-252","942","942","CS","Clinical Sign","CLINICAL SIGNS","NORMAL","NORMAL","","7","2018-10-15","7","Afternoon","4"
"S-00001","CL","S-00001-252","943","943","CS","Clinical Sign","CLINICAL SIGNS","NORMAL","NORMAL","","7","2018-10-15","7","End of the Day","5"
"S-00001","CL","S-00001-252","944","944","CS","Clinical Sign","CLINICAL SIGNS","NORMAL","NORMAL","","8","2018-10-16","8","Before Dosing","1"
"S-00001","CL","S-00001-252","945","945","CS","Clinical Sign","CLINICAL SIGNS","NORMAL","NORMAL","","8","2018-10-16","8","Afternoon","4"
"S-00001","CL","S-00001-252","946","946","CS","Clinical Sign","CLINICAL SIGNS","NORMAL","NORMAL","","8","2018-10-16","8","End of the Day","5"
"S-00001","CL","S-00001-252","947","947","CS","Clinical Sign","CLINICAL SIGNS","NORMAL","NORMAL","","9","2018-10-17","9","Before Dosing","1"
"S-00001","CL","S-00001-252","948","948","CS","Clinical Sign","CLINICAL SIGNS","NORMAL","NORMAL","","9","2018-10-17","9","Afternoon","4"
"S-00001","CL","S-00001-252","949","949","CS","Clinical Sign","CLINICAL SIGNS","NORMAL","NORMAL","","9","2018-10-17","9","End of the Day","5"
"S-00001","CL","S-00001-252","950","950","CS","Clinical Sign","CLINICAL SIGNS","NORMAL","NORMAL","","10","2018-10-18","10","Before Dosing","1"
"S-00001","CL","S-00001-252","951","951","CS","Clinical Sign","CLINICAL SIGNS","NORMAL","NORMAL","","10","2018-10-18","10","Afternoon","4"
"S-00001","CL","S-00001-252","952","952","CS","Clinical Sign","CLINICAL SIGNS","NORMAL","NORMAL","","10","2018-10-18","10","End of the Day","5"
"S-00001","CL","S-00001-252","953","953","CS","Clinical Sign","CLINICAL SIGNS","NORMAL","NORMAL","","11","2018-10-19","11","Before Dosing","1"
"S-00001","CL","S-00001-252","954","954","CS","Clinical Sign","CLINICAL SIGNS","NORMAL","NORMAL","","11","2018-10-19","11","Afternoon","4"
"S-00001","CL","S-00001-252","955","955","CS","Clinical Sign","CLINICAL SIGNS","NORMAL","NORMAL","","11","2018-10-19","11","End of the Day","5"
"S-00001","CL","S-00001-252","956","956","CS","Clinical Sign","CLINICAL SIGNS","NORMAL","NORMAL","","12","2018-10-20","12","Before Dosing","1"
"S-00001","CL","S-00001-252","957","957","CS","Clinical Sign","CLINICAL SIGNS","NORMAL","NORMAL","","12","2018-10-20","12","Immediately after dosing","2"
"S-00001","CL","S-00001-252","958","958","CS","Clinical Sign","CLINICAL SIGNS","NORMAL","NORMAL","","13","2018-10-21","13","Before Dosing","1"
"S-00001","CL","S-00001-252","959","959","CS","Clinical Sign","CLINICAL SIGNS","NORMAL","NORMAL","","13","2018-10-21","13","Immediately after dosing","2"
"S-00001","CL","S-00001-252","960","960","CS","Clinical Sign","CLINICAL SIGNS","NORMAL","NORMAL","","14","2018-10-22","14","Before Dosing","1"
"S-00001","CL","S-00001-252","961","961","CS","Clinical Sign","CLINICAL SIGNS","NORMAL","NORMAL","","14","2018-10-22","14","Afternoon","4"
"S-00001","CL","S-00001-252","962","962","CS","Clinical Sign","CLINICAL SIGNS","NORMAL","NORMAL","","14","2018-10-22","14","End of the Day","5"
"S-00001","CL","S-00001-252","963","963","CS","Clinical Sign","CLINICAL SIGNS","NORMAL","NORMAL","","15","2018-10-23","15","Before Dosing","1"
"S-00001","CL","S-00001-252","964","964","CS","Clinical Sign","CLINICAL SIGNS","NORMAL","NORMAL","","15","2018-10-23","15","Afternoon","4"
"S-00001","CL","S-00001-252","965","965","CS","Clinical Sign","CLINICAL SIGNS","NORMAL","NORMAL","","15","2018-10-23","15","End of the Day","5"
"S-00001","CL","S-00001-252","966","966","CS","Clinical Sign","CLINICAL SIGNS","NORMAL","NORMAL","","16","2018-10-24","16","Before Dosing","1"
"S-00001","CL","S-00001-252","967","967","CS","Clinical Sign","CLINICAL SIGNS","NORMAL","NORMAL","","16","2018-10-24","16","Afternoon","4"
"S-00001","CL","S-00001-252","968","968","CS","Clinical Sign","CLINICAL SIGNS","NORMAL","NORMAL","","16","2018-10-24","16","End of the Day","5"
"S-00001","CL","S-00001-252","969","969","CS","Clinical Sign","CLINICAL SIGNS","NORMAL","NORMAL","","17","2018-10-25","17","Before Dosing","1"
"S-00001","CL","S-00001-252","970","970","CS","Clinical Sign","CLINICAL SIGNS","NORMAL","NORMAL","","17","2018-10-25","17","Afternoon","4"
"S-00001","CL","S-00001-252","971","971","CS","Clinical Sign","CLINICAL SIGNS","NORMAL","NORMAL","","17","2018-10-25","17","End of the Day","5"
"S-00001","CL","S-00001-252","972","972","CS","Clinical Sign","CLINICAL SIGNS","NORMAL","NORMAL","","18","2018-10-26","18","Before Dosing","1"
"S-00001","CL","S-00001-252","973","973","CS","Clinical Sign","CLINICAL SIGNS","NORMAL","NORMAL","","18","2018-10-26","18","Afternoon","4"
"S-00001","CL","S-00001-252","974","974","CS","Clinical Sign","CLINICAL SIGNS","NORMAL","NORMAL","","18","2018-10-26","18","End of the Day","5"
"S-00001","CL","S-00001-252","975","975","CS","Clinical Sign","CLINICAL SIGNS","NORMAL","NORMAL","","19","2018-10-27","19","Before Dosing","1"
"S-00001","CL","S-00001-252","976","976","CS","Clinical Sign","CLINICAL SIGNS","NORMAL","NORMAL","","19","2018-10-27","19","Immediately after dosing","2"
"S-00001","CL","S-00001-252","977","977","CS","Clinical Sign","CLINICAL SIGNS","NORMAL","NORMAL","","20","2018-10-28","20","Before Dosing","1"
"S-00001","CL","S-00001-252","978","978","CS","Clinical Sign","CLINICAL SIGNS","NORMAL","NORMAL","","20","2018-10-28","20","Immediately after dosing","2"
"S-00001","CL","S-00001-252","979","979","CS","Clinical Sign","CLINICAL SIGNS","NORMAL","NORMAL","","21","2018-10-29","21","Before Dosing","1"
"S-00001","CL","S-00001-252","980","980","CS","Clinical Sign","CLINICAL SIGNS","NORMAL","NORMAL","","21","2018-10-29","21","Afternoon","4"
"S-00001","CL","S-00001-252","981","981","CS","Clinical Sign","CLINICAL SIGNS","NORMAL","NORMAL","","21","2018-10-29","21","End of the Day","5"
"S-00001","CL","S-00001-252","982","982","CS","Clinical Sign","CLINICAL SIGNS","NORMAL","NORMAL","","22","2018-10-30","22","Before Dosing","1"
"S-00001","CL","S-00001-252","983","983","CS","Clinical Sign","CLINICAL SIGNS","NORMAL","NORMAL","","22","2018-10-30","22","Afternoon","4"
"S-00001","CL","S-00001-252","984","984","CS","Clinical Sign","CLINICAL SIGNS","NORMAL","NORMAL","","22","2018-10-30","22","End of the Day","5"
"S-00001","CL","S-00001-252","985","985","CS","Clinical Sign","CLINICAL SIGNS","NORMAL","NORMAL","","23","2018-10-31","23","Before Dosing","1"
"S-00001","CL","S-00001-252","986","986","CS","Clinical Sign","CLINICAL SIGNS","NORMAL","NORMAL","","23","2018-10-31","23","Afternoon","4"
"S-00001","CL","S-00001-252","987","987","CS","Clinical Sign","CLINICAL SIGNS","NORMAL","NORMAL","","23","2018-10-31","23","End of the Day","5"
"S-00001","CL","S-00001-252","988","988","CS","Clinical Sign","CLINICAL SIGNS","NORMAL","NORMAL","","24","2018-11-01","24","Before Dosing","1"
"S-00001","CL","S-00001-252","989","989","CS","Clinical Sign","CLINICAL SIGNS","NORMAL","NORMAL","","24","2018-11-01","24","Afternoon","4"
"S-00001","CL","S-00001-252","990","990","CS","Clinical Sign","CLINICAL SIGNS","NORMAL","NORMAL","","24","2018-11-01","24","End of the Day","5"
"S-00001","CL","S-00001-252","991","991","CS","Clinical Sign","CLINICAL SIGNS","NORMAL","NORMAL","","25","2018-11-02","25","Before Dosing","1"
"S-00001","CL","S-00001-252","992","992","CS","Clinical Sign","CLINICAL SIGNS","NORMAL","NORMAL","","25","2018-11-02","25","Afternoon","4"
"S-00001","CL","S-00001-252","993","993","CS","Clinical Sign","CLINICAL SIGNS","NORMAL","NORMAL","","25","2018-11-02","25","End of the Day","5"
"S-00001","CL","S-00001-252","994","994","CS","Clinical Sign","CLINICAL SIGNS","NORMAL","NORMAL","","26","2018-11-03","26","Before Dosing","1"
"S-00001","CL","S-00001-252","995","995","CS","Clinical Sign","CLINICAL SIGNS","NORMAL","NORMAL","","26","2018-11-03","26","Immediately after dosing","2"
"S-00001","CL","S-00001-252","996","996","CS","Clinical Sign","CLINICAL SIGNS","NORMAL","NORMAL","","27","2018-11-04","27","Before Dosing","1"
"S-00001","CL","S-00001-252","997","997","CS","Clinical Sign","CLINICAL SIGNS","NORMAL","NORMAL","","27","2018-11-04","27","Immediately after dosing","2"
"S-00001","CL","S-00001-252","998","998","CS","Clinical Sign","CLINICAL SIGNS","NORMAL","NORMAL","","28","2018-11-05","28","Before Dosing","1"
"S-00001","CL","S-00001-252","999","999","CS","Clinical Sign","CLINICAL SIGNS","NORMAL","NORMAL","","28","2018-11-05","28","Afternoon","4"
"S-00001","CL","S-00001-252","1000","1000","CS","Clinical Sign","CLINICAL SIGNS","NORMAL","NORMAL","","28","2018-11-05","28","End of the Day","5"
"S-00001","CL","S-00001-252","1001","1001","CS","Clinical Sign","CLINICAL SIGNS","NORMAL","NORMAL","","29","2018-11-06","29","Before Dosing","1"
"S-00001","CL","S-00001-252","1002","1002","CS","Clinical Sign","CLINICAL SIGNS","NORMAL","NORMAL","","29","2018-11-06","29","Afternoon","4"
"S-00001","CL","S-00001-252","1003","1003","CS","Clinical Sign","CLINICAL SIGNS","NORMAL","NORMAL","","29","2018-11-06","29","End of the Day","5"
"S-00001","CL","S-00001-252","1004","1004","CS","Clinical Sign","CLINICAL SIGNS","NORMAL","NORMAL","","30","2018-11-07","30","Before Dosing","1"
"S-00001","CL","S-00001-252","1005","1005","CS","Clinical Sign","CLINICAL SIGNS","NORMAL","NORMAL","","30","2018-11-07","30","Afternoon","4"
"S-00001","CL","S-00001-252","1006","1006","CS","Clinical Sign","CLINICAL SIGNS","NORMAL","NORMAL","","30","2018-11-07","30","End of the Day","5"
"S-00001","CL","S-00001-252","1007","1007","CS","Clinical Sign","CLINICAL SIGNS","NORMAL","NORMAL","","31","2018-11-08","31","Before Dosing","1"
"S-00001","CL","S-00001-252","1008","1008","CS","Clinical Sign","CLINICAL SIGNS","NORMAL","NORMAL","","31","2018-11-08","31","Afternoon","4"
"S-00001","CL","S-00001-252","1009","1009","CS","Clinical Sign","CLINICAL SIGNS","NORMAL","NORMAL","","31","2018-11-08","31","End of the Day","5"
"S-00001","CL","S-00001-252","1010","1010","CS","Clinical Sign","CLINICAL SIGNS","NORMAL","NORMAL","","32","2018-11-09","32","Before Dosing","1"
"S-00001","CL","S-00001-252","1011","1011","CS","Clinical Sign","CLINICAL SIGNS","NORMAL","NORMAL","","32","2018-11-09","32","Afternoon","4"
"S-00001","CL","S-00001-252","1012","1012","CS","Clinical Sign","CLINICAL SIGNS","NORMAL","NORMAL","","32","2018-11-09","32","End of the Day","5"
"S-00001","CL","S-00001-252","1013","1013","CS","Clinical Sign","CLINICAL SIGNS","NORMAL","NORMAL","","33","2018-11-10","33","Before Dosing","1"
"S-00001","CL","S-00001-252","1014","1014","CS","Clinical Sign","CLINICAL SIGNS","NORMAL","NORMAL","","33","2018-11-10","33","Immediately after dosing","2"
"S-00001","CL","S-00001-252","1015","1015","CS","Clinical Sign","CLINICAL SIGNS","NORMAL","NORMAL","","34","2018-11-11","34","Before Dosing","1"
"S-00001","CL","S-00001-252","1016","1016","CS","Clinical Sign","CLINICAL SIGNS","NORMAL","NORMAL","","34","2018-11-11","34","Immediately after dosing","2"
"S-00001","CL","S-00001-252","1017","1017","CS","Clinical Sign","CLINICAL SIGNS","NORMAL","NORMAL","","35","2018-11-12","35","Before Dosing","1"
"S-00001","CL","S-00001-252","1018","1018","CS","Clinical Sign","CLINICAL SIGNS","NORMAL","NORMAL","","35","2018-11-12","35","Afternoon","4"
"S-00001","CL","S-00001-252","1019","1019","CS","Clinical Sign","CLINICAL SIGNS","NORMAL","NORMAL","","35","2018-11-12","35","End of the Day","5"
"S-00001","CL","S-00001-252","1020","1020","CS","Clinical Sign","CLINICAL SIGNS","NORMAL","NORMAL","","36","2018-11-13","36","Before Dosing","1"
"S-00001","CL","S-00001-252","1021","1021","CS","Clinical Sign","CLINICAL SIGNS","NORMAL","NORMAL","","36","2018-11-13","36","Afternoon","4"
"S-00001","CL","S-00001-252","1022","1022","CS","Clinical Sign","CLINICAL SIGNS","NORMAL","NORMAL","","36","2018-11-13","36","End of the Day","5"
"S-00001","CL","S-00001-252","1023","1023","CS","Clinical Sign","CLINICAL SIGNS","NORMAL","NORMAL","","37","2018-11-14","37","Before Dosing","1"
"S-00001","CL","S-00001-252","1024","1024","CS","Clinical Sign","CLINICAL SIGNS","NORMAL","NORMAL","","37","2018-11-14","37","Afternoon","4"
"S-00001","CL","S-00001-252","1025","1025","CS","Clinical Sign","CLINICAL SIGNS","NORMAL","NORMAL","","37","2018-11-14","37","End of the Day","5"
"S-00001","CL","S-00001-252","1026","1026","CS","Clinical Sign","CLINICAL SIGNS","NORMAL","NORMAL","","38","2018-11-15","38","Before Dosing","1"
"S-00001","CL","S-00001-252","1027","1027","CS","Clinical Sign","CLINICAL SIGNS","NORMAL","NORMAL","","38","2018-11-15","38","Afternoon","4"
"S-00001","CL","S-00001-252","1028","1028","CS","Clinical Sign","CLINICAL SIGNS","NORMAL","NORMAL","","38","2018-11-15","38","End of the Day","5"
"S-00001","CL","S-00001-252","1029","1029","CS","Clinical Sign","CLINICAL SIGNS","NORMAL","NORMAL","","39","2018-11-16","39","Before Dosing","1"
"S-00001","CL","S-00001-252","1030","1030","CS","Clinical Sign","CLINICAL SIGNS","NORMAL","NORMAL","","39","2018-11-16","39","Afternoon","4"
"S-00001","CL","S-00001-252","1031","1031","CS","Clinical Sign","CLINICAL SIGNS","NORMAL","NORMAL","","39","2018-11-16","39","End of the Day","5"
"S-00001","CL","S-00001-252","1032","1032","CS","Clinical Sign","CLINICAL SIGNS","NORMAL","NORMAL","","40","2018-11-17","40","Before Dosing","1"
"S-00001","CL","S-00001-252","1033","1033","CS","Clinical Sign","CLINICAL SIGNS","NORMAL","NORMAL","","40","2018-11-17","40","Immediately after dosing","2"
"S-00001","CL","S-00001-252","1034","1034","CS","Clinical Sign","CLINICAL SIGNS","NORMAL","NORMAL","","41","2018-11-18","41","Before Dosing","1"
"S-00001","CL","S-00001-252","1035","1035","CS","Clinical Sign","CLINICAL SIGNS","NORMAL","NORMAL","","41","2018-11-18","41","Immediately after dosing","2"
"S-00001","CL","S-00001-252","1036","1036","CS","Clinical Sign","CLINICAL SIGNS","NORMAL","NORMAL","","42","2018-11-19","42","Before Dosing","1"
"S-00001","CL","S-00001-252","1037","1037","CS","Clinical Sign","CLINICAL SIGNS","NORMAL","NORMAL","","42","2018-11-19","42","Afternoon","4"
"S-00001","CL","S-00001-252","1038","1038","CS","Clinical Sign","CLINICAL SIGNS","NORMAL","NORMAL","","42","2018-11-19","42","End of the Day","5"
"S-00001","CL","S-00001-252","1039","1039","CS","Clinical Sign","CLINICAL SIGNS","NORMAL","NORMAL","","43","2018-11-20","43","Before Dosing","1"
"S-00001","CL","S-00001-252","1040","1040","CS","Clinical Sign","CLINICAL SIGNS","NORMAL","NORMAL","","43","2018-11-20","43","Afternoon","4"
"S-00001","CL","S-00001-252","1041","1041","CS","Clinical Sign","CLINICAL SIGNS","NORMAL","NORMAL","","43","2018-11-20","43","End of the Day","5"
"S-00001","CL","S-00001-252","1042","1042","CS","Clinical Sign","CLINICAL SIGNS","NORMAL","NORMAL","","44","2018-11-21","44","Before Dosing","1"
"S-00001","CL","S-00001-252","1043","1043","CS","Clinical Sign","CLINICAL SIGNS","NORMAL","NORMAL","","44","2018-11-21","44","Afternoon","4"
"S-00001","CL","S-00001-252","1044","1044","CS","Clinical Sign","CLINICAL SIGNS","NORMAL","NORMAL","","44","2018-11-21","44","End of the Day","5"
"S-00001","CL","S-00001-252","1045","1045","CS","Clinical Sign","CLINICAL SIGNS","NORMAL","NORMAL","","45","2018-11-22","45","Before Dosing","1"
"S-00001","CL","S-00001-252","1046","1046","CS","Clinical Sign","CLINICAL SIGNS","NORMAL","NORMAL","","45","2018-11-22","45","Afternoon","4"
"S-00001","CL","S-00001-252","1047","1047","CS","Clinical Sign","CLINICAL SIGNS","NORMAL","NORMAL","","45","2018-11-22","45","End of the Day","5"
"S-00001","CL","S-00001-252","1048","1048","CS","Clinical Sign","CLINICAL SIGNS","NORMAL","NORMAL","","46","2018-11-23","46","Before Dosing","1"
"S-00001","CL","S-00001-253","1049","1049","CS","Clinical Sign","CLINICAL SIGNS","NORMAL","NORMAL","","1","2018-10-09","1","Immediately after dosing","2"
"S-00001","CL","S-00001-253","1050","1050","CS","Clinical Sign","CLINICAL SIGNS","NORMAL","NORMAL","","1","2018-10-09","1","0.5h after treatment","3"
"S-00001","CL","S-00001-253","1051","1051","CS","Clinical Sign","CLINICAL SIGNS","NORMAL","NORMAL","","1","2018-10-09","1","Afternoon","4"
"S-00001","CL","S-00001-253","1052","1052","CS","Clinical Sign","CLINICAL SIGNS","NORMAL","NORMAL","","1","2018-10-09","1","End of the Day","5"
"S-00001","CL","S-00001-253","1053","1053","CS","Clinical Sign","CLINICAL SIGNS","NORMAL","NORMAL","","2","2018-10-10","2","Before Dosing","1"
"S-00001","CL","S-00001-253","1054","1054","CS","Clinical Sign","CLINICAL SIGNS","NORMAL","NORMAL","","2","2018-10-10","2","Immediately after dosing","2"
"S-00001","CL","S-00001-253","1055","1055","CS","Clinical Sign","CLINICAL SIGNS","NORMAL","NORMAL","","2","2018-10-10","2","0.5h after treatment","3"
"S-00001","CL","S-00001-253","1056","1056","CS","Clinical Sign","CLINICAL SIGNS","NORMAL","NORMAL","","2","2018-10-10","2","Afternoon","4"
"S-00001","CL","S-00001-253","1057","1057","CS","Clinical Sign","CLINICAL SIGNS","NORMAL","NORMAL","","2","2018-10-10","2","End of the Day","5"
"S-00001","CL","S-00001-253","1058","1058","CS","Clinical Sign","CLINICAL SIGNS","NORMAL","NORMAL","","3","2018-10-11","3","Before Dosing","1"
"S-00001","CL","S-00001-253","1059","1059","CS","Clinical Sign","CLINICAL SIGNS","NORMAL","NORMAL","","3","2018-10-11","3","Immediately after dosing","2"
"S-00001","CL","S-00001-253","1060","1060","CS","Clinical Sign","CLINICAL SIGNS","NORMAL","NORMAL","","3","2018-10-11","3","0.5h after treatment","3"
"S-00001","CL","S-00001-253","1061","1061","CS","Clinical Sign","CLINICAL SIGNS","NORMAL","NORMAL","","3","2018-10-11","3","Afternoon","4"
"S-00001","CL","S-00001-253","1062","1062","CS","Clinical Sign","CLINICAL SIGNS","NORMAL","NORMAL","","3","2018-10-11","3","End of the Day","5"
"S-00001","CL","S-00001-253","1063","1063","CS","Clinical Sign","CLINICAL SIGNS","NORMAL","NORMAL","","4","2018-10-12","4","Before Dosing","1"
"S-00001","CL","S-00001-253","1064","1064","CS","Clinical Sign","CLINICAL SIGNS","NORMAL","NORMAL","","4","2018-10-12","4","Immediately after dosing","2"
"S-00001","CL","S-00001-253","1065","1065","CS","Clinical Sign","CLINICAL SIGNS","NORMAL","NORMAL","","4","2018-10-12","4","0.5h after treatment","3"
"S-00001","CL","S-00001-253","1066","1066","CS","Clinical Sign","CLINICAL SIGNS","NORMAL","NORMAL","","4","2018-10-12","4","Afternoon","4"
"S-00001","CL","S-00001-253","1067","1067","CS","Clinical Sign","CLINICAL SIGNS","NORMAL","NORMAL","","4","2018-10-12","4","End of the Day","5"
"S-00001","CL","S-00001-253","1068","1068","CS","Clinical Sign","CLINICAL SIGNS","NORMAL","NORMAL","","5","2018-10-13","5","Before Dosing","1"
"S-00001","CL","S-00001-253","1069","1069","CS","Clinical Sign","CLINICAL SIGNS","NORMAL","NORMAL","","5","2018-10-13","5","Immediately after dosing","2"
"S-00001","CL","S-00001-253","1070","1070","CS","Clinical Sign","CLINICAL SIGNS","NORMAL","NORMAL","","6","2018-10-14","6","Before Dosing","1"
"S-00001","CL","S-00001-253","1071","1071","CS","Clinical Sign","CLINICAL SIGNS","NORMAL","NORMAL","","6","2018-10-14","6","Immediately after dosing","2"
"S-00001","CL","S-00001-253","1072","1072","CS","Clinical Sign","CLINICAL SIGNS","NORMAL","NORMAL","","7","2018-10-15","7","Before Dosing","1"
"S-00001","CL","S-00001-253","1073","1073","CS","Clinical Sign","CLINICAL SIGNS","NORMAL","NORMAL","","7","2018-10-15","7","Afternoon","4"
"S-00001","CL","S-00001-253","1074","1074","CS","Clinical Sign","CLINICAL SIGNS","NORMAL","NORMAL","","7","2018-10-15","7","End of the Day","5"
"S-00001","CL","S-00001-253","1075","1075","CS","Clinical Sign","CLINICAL SIGNS","NORMAL","NORMAL","","8","2018-10-16","8","Before Dosing","1"
"S-00001","CL","S-00001-253","1076","1076","CS","Clinical Sign","CLINICAL SIGNS","NORMAL","NORMAL","","8","2018-10-16","8","Afternoon","4"
"S-00001","CL","S-00001-253","1077","1077","CS","Clinical Sign","CLINICAL SIGNS","NORMAL","NORMAL","","8","2018-10-16","8","End of the Day","5"
"S-00001","CL","S-00001-253","1078","1078","CS","Clinical Sign","CLINICAL SIGNS","NORMAL","NORMAL","","9","2018-10-17","9","Before Dosing","1"
"S-00001","CL","S-00001-253","1079","1079","CS","Clinical Sign","CLINICAL SIGNS","NORMAL","NORMAL","","9","2018-10-17","9","Afternoon","4"
"S-00001","CL","S-00001-253","1080","1080","CS","Clinical Sign","CLINICAL SIGNS","NORMAL","NORMAL","","9","2018-10-17","9","End of the Day","5"
"S-00001","CL","S-00001-253","1081","1081","CS","Clinical Sign","CLINICAL SIGNS","NORMAL","NORMAL","","10","2018-10-18","10","Before Dosing","1"
"S-00001","CL","S-00001-253","1082","1082","CS","Clinical Sign","CLINICAL SIGNS","NORMAL","NORMAL","","10","2018-10-18","10","Afternoon","4"
"S-00001","CL","S-00001-253","1083","1083","CS","Clinical Sign","CLINICAL SIGNS","NORMAL","NORMAL","","10","2018-10-18","10","End of the Day","5"
"S-00001","CL","S-00001-253","1084","1084","CS","Clinical Sign","CLINICAL SIGNS","NORMAL","NORMAL","","11","2018-10-19","11","Before Dosing","1"
"S-00001","CL","S-00001-253","1085","1085","CS","Clinical Sign","CLINICAL SIGNS","NORMAL","NORMAL","","11","2018-10-19","11","Afternoon","4"
"S-00001","CL","S-00001-253","1086","1086","CS","Clinical Sign","CLINICAL SIGNS","NORMAL","NORMAL","","11","2018-10-19","11","End of the Day","5"
"S-00001","CL","S-00001-253","1087","1087","CS","Clinical Sign","CLINICAL SIGNS","NORMAL","NORMAL","","12","2018-10-20","12","Before Dosing","1"
"S-00001","CL","S-00001-253","1088","1088","CS","Clinical Sign","CLINICAL SIGNS","NORMAL","NORMAL","","12","2018-10-20","12","Immediately after dosing","2"
"S-00001","CL","S-00001-253","1089","1089","CS","Clinical Sign","CLINICAL SIGNS","NORMAL","NORMAL","","13","2018-10-21","13","Before Dosing","1"
"S-00001","CL","S-00001-253","1090","1090","CS","Clinical Sign","CLINICAL SIGNS","NORMAL","NORMAL","","13","2018-10-21","13","Immediately after dosing","2"
"S-00001","CL","S-00001-253","1091","1091","CS","Clinical Sign","CLINICAL SIGNS","NORMAL","NORMAL","","14","2018-10-22","14","Before Dosing","1"
"S-00001","CL","S-00001-253","1092","1092","CS","Clinical Sign","CLINICAL SIGNS","NORMAL","NORMAL","","14","2018-10-22","14","Afternoon","4"
"S-00001","CL","S-00001-253","1093","1093","CS","Clinical Sign","CLINICAL SIGNS","NORMAL","NORMAL","","14","2018-10-22","14","End of the Day","5"
"S-00001","CL","S-00001-253","1094","1094","CS","Clinical Sign","CLINICAL SIGNS","NORMAL","NORMAL","","15","2018-10-23","15","Before Dosing","1"
"S-00001","CL","S-00001-253","1095","1095","CS","Clinical Sign","CLINICAL SIGNS","NORMAL","NORMAL","","15","2018-10-23","15","Afternoon","4"
"S-00001","CL","S-00001-253","1096","1096","CS","Clinical Sign","CLINICAL SIGNS","NORMAL","NORMAL","","15","2018-10-23","15","End of the Day","5"
"S-00001","CL","S-00001-253","1097","1097","CS","Clinical Sign","CLINICAL SIGNS","NORMAL","NORMAL","","16","2018-10-24","16","Before Dosing","1"
"S-00001","CL","S-00001-253","1098","1098","CS","Clinical Sign","CLINICAL SIGNS","NORMAL","NORMAL","","16","2018-10-24","16","Afternoon","4"
"S-00001","CL","S-00001-253","1099","1099","CS","Clinical Sign","CLINICAL SIGNS","NORMAL","NORMAL","","16","2018-10-24","16","End of the Day","5"
"S-00001","CL","S-00001-253","1100","1100","CS","Clinical Sign","CLINICAL SIGNS","NORMAL","NORMAL","","17","2018-10-25","17","Before Dosing","1"
"S-00001","CL","S-00001-253","1101","1101","CS","Clinical Sign","CLINICAL SIGNS","NORMAL","NORMAL","","17","2018-10-25","17","Afternoon","4"
"S-00001","CL","S-00001-253","1102","1102","CS","Clinical Sign","CLINICAL SIGNS","NORMAL","NORMAL","","17","2018-10-25","17","End of the Day","5"
"S-00001","CL","S-00001-253","1103","1103","CS","Clinical Sign","CLINICAL SIGNS","NORMAL","NORMAL","","18","2018-10-26","18","Before Dosing","1"
"S-00001","CL","S-00001-253","1104","1104","CS","Clinical Sign","CLINICAL SIGNS","NORMAL","NORMAL","","18","2018-10-26","18","Afternoon","4"
"S-00001","CL","S-00001-253","1105","1105","CS","Clinical Sign","CLINICAL SIGNS","NORMAL","NORMAL","","18","2018-10-26","18","End of the Day","5"
"S-00001","CL","S-00001-253","1106","1106","CS","Clinical Sign","CLINICAL SIGNS","NORMAL","NORMAL","","19","2018-10-27","19","Before Dosing","1"
"S-00001","CL","S-00001-253","1107","1107","CS","Clinical Sign","CLINICAL SIGNS","NORMAL","NORMAL","","19","2018-10-27","19","Immediately after dosing","2"
"S-00001","CL","S-00001-253","1108","1108","CS","Clinical Sign","CLINICAL SIGNS","NORMAL","NORMAL","","20","2018-10-28","20","Before Dosing","1"
"S-00001","CL","S-00001-253","1109","1109","CS","Clinical Sign","CLINICAL SIGNS","NORMAL","NORMAL","","20","2018-10-28","20","Immediately after dosing","2"
"S-00001","CL","S-00001-253","1110","1110","CS","Clinical Sign","CLINICAL SIGNS","NORMAL","NORMAL","","21","2018-10-29","21","Before Dosing","1"
"S-00001","CL","S-00001-253","1111","1111","CS","Clinical Sign","CLINICAL SIGNS","NORMAL","NORMAL","","21","2018-10-29","21","Afternoon","4"
"S-00001","CL","S-00001-253","1112","1112","CS","Clinical Sign","CLINICAL SIGNS","NORMAL","NORMAL","","21","2018-10-29","21","End of the Day","5"
"S-00001","CL","S-00001-253","1113","1113","CS","Clinical Sign","CLINICAL SIGNS","NORMAL","NORMAL","","22","2018-10-30","22","Before Dosing","1"
"S-00001","CL","S-00001-253","1114","1114","CS","Clinical Sign","CLINICAL SIGNS","NORMAL","NORMAL","","22","2018-10-30","22","Afternoon","4"
"S-00001","CL","S-00001-253","1115","1115","CS","Clinical Sign","CLINICAL SIGNS","NORMAL","NORMAL","","22","2018-10-30","22","End of the Day","5"
"S-00001","CL","S-00001-253","1116","1116","CS","Clinical Sign","CLINICAL SIGNS","NORMAL","NORMAL","","23","2018-10-31","23","Before Dosing","1"
"S-00001","CL","S-00001-253","1117","1117","CS","Clinical Sign","CLINICAL SIGNS","NORMAL","NORMAL","","23","2018-10-31","23","Afternoon","4"
"S-00001","CL","S-00001-253","1118","1118","CS","Clinical Sign","CLINICAL SIGNS","NORMAL","NORMAL","","23","2018-10-31","23","End of the Day","5"
"S-00001","CL","S-00001-253","1119","1119","CS","Clinical Sign","CLINICAL SIGNS","NORMAL","NORMAL","","24","2018-11-01","24","Before Dosing","1"
"S-00001","CL","S-00001-253","1120","1120","CS","Clinical Sign","CLINICAL SIGNS","NORMAL","NORMAL","","24","2018-11-01","24","Afternoon","4"
"S-00001","CL","S-00001-253","1121","1121","CS","Clinical Sign","CLINICAL SIGNS","NORMAL","NORMAL","","24","2018-11-01","24","End of the Day","5"
"S-00001","CL","S-00001-253","1122","1122","CS","Clinical Sign","CLINICAL SIGNS","NORMAL","NORMAL","","25","2018-11-02","25","Before Dosing","1"
"S-00001","CL","S-00001-253","1123","1123","CS","Clinical Sign","CLINICAL SIGNS","NORMAL","NORMAL","","25","2018-11-02","25","Afternoon","4"
"S-00001","CL","S-00001-253","1124","1124","CS","Clinical Sign","CLINICAL SIGNS","NORMAL","NORMAL","","25","2018-11-02","25","End of the Day","5"
"S-00001","CL","S-00001-253","1125","1125","CS","Clinical Sign","CLINICAL SIGNS","NORMAL","NORMAL","","26","2018-11-03","26","Before Dosing","1"
"S-00001","CL","S-00001-253","1126","1126","CS","Clinical Sign","CLINICAL SIGNS","NORMAL","NORMAL","","26","2018-11-03","26","Immediately after dosing","2"
"S-00001","CL","S-00001-253","1127","1127","CS","Clinical Sign","CLINICAL SIGNS","NORMAL","NORMAL","","27","2018-11-04","27","Before Dosing","1"
"S-00001","CL","S-00001-253","1128","1128","CS","Clinical Sign","CLINICAL SIGNS","NORMAL","NORMAL","","27","2018-11-04","27","Immediately after dosing","2"
"S-00001","CL","S-00001-253","1129","1129","CS","Clinical Sign","CLINICAL SIGNS","NORMAL","NORMAL","","28","2018-11-05","28","Before Dosing","1"
"S-00001","CL","S-00001-253","1130","1130","CS","Clinical Sign","CLINICAL SIGNS","NORMAL","NORMAL","","28","2018-11-05","28","Afternoon","4"
"S-00001","CL","S-00001-253","1131","1131","CS","Clinical Sign","CLINICAL SIGNS","NORMAL","NORMAL","","28","2018-11-05","28","End of the Day","5"
"S-00001","CL","S-00001-253","1132","1132","CS","Clinical Sign","CLINICAL SIGNS","NORMAL","NORMAL","","29","2018-11-06","29","Before Dosing","1"
"S-00001","CL","S-00001-253","1133","1133","CS","Clinical Sign","CLINICAL SIGNS","NORMAL","NORMAL","","29","2018-11-06","29","Afternoon","4"
"S-00001","CL","S-00001-253","1134","1134","CS","Clinical Sign","CLINICAL SIGNS","NORMAL","NORMAL","","29","2018-11-06","29","End of the Day","5"
"S-00001","CL","S-00001-253","1135","1135","CS","Clinical Sign","CLINICAL SIGNS","NORMAL","NORMAL","","30","2018-11-07","30","Before Dosing","1"
"S-00001","CL","S-00001-253","1136","1136","CS","Clinical Sign","CLINICAL SIGNS","NORMAL","NORMAL","","30","2018-11-07","30","Afternoon","4"
"S-00001","CL","S-00001-253","1137","1137","CS","Clinical Sign","CLINICAL SIGNS","NORMAL","NORMAL","","30","2018-11-07","30","End of the Day","5"
"S-00001","CL","S-00001-253","1138","1138","CS","Clinical Sign","CLINICAL SIGNS","NORMAL","NORMAL","","31","2018-11-08","31","Before Dosing","1"
"S-00001","CL","S-00001-253","1139","1139","CS","Clinical Sign","CLINICAL SIGNS","NORMAL","NORMAL","","31","2018-11-08","31","Afternoon","4"
"S-00001","CL","S-00001-253","1140","1140","CS","Clinical Sign","CLINICAL SIGNS","NORMAL","NORMAL","","31","2018-11-08","31","End of the Day","5"
"S-00001","CL","S-00001-253","1141","1141","CS","Clinical Sign","CLINICAL SIGNS","NORMAL","NORMAL","","32","2018-11-09","32","Before Dosing","1"
"S-00001","CL","S-00001-253","1142","1142","CS","Clinical Sign","CLINICAL SIGNS","NORMAL","NORMAL","","32","2018-11-09","32","Afternoon","4"
"S-00001","CL","S-00001-253","1143","1143","CS","Clinical Sign","CLINICAL SIGNS","NORMAL","NORMAL","","32","2018-11-09","32","End of the Day","5"
"S-00001","CL","S-00001-253","1144","1144","CS","Clinical Sign","CLINICAL SIGNS","NORMAL","NORMAL","","33","2018-11-10","33","Before Dosing","1"
"S-00001","CL","S-00001-253","1145","1145","CS","Clinical Sign","CLINICAL SIGNS","NORMAL","NORMAL","","33","2018-11-10","33","Immediately after dosing","2"
"S-00001","CL","S-00001-253","1146","1146","CS","Clinical Sign","CLINICAL SIGNS","NORMAL","NORMAL","","34","2018-11-11","34","Before Dosing","1"
"S-00001","CL","S-00001-253","1147","1147","CS","Clinical Sign","CLINICAL SIGNS","NORMAL","NORMAL","","34","2018-11-11","34","Immediately after dosing","2"
"S-00001","CL","S-00001-253","1148","1148","CS","Clinical Sign","CLINICAL SIGNS","NORMAL","NORMAL","","35","2018-11-12","35","Before Dosing","1"
"S-00001","CL","S-00001-253","1149","1149","CS","Clinical Sign","CLINICAL SIGNS","NORMAL","NORMAL","","35","2018-11-12","35","Afternoon","4"
"S-00001","CL","S-00001-253","1150","1150","CS","Clinical Sign","CLINICAL SIGNS","NORMAL","NORMAL","","35","2018-11-12","35","End of the Day","5"
"S-00001","CL","S-00001-253","1151","1151","CS","Clinical Sign","CLINICAL SIGNS","NORMAL","NORMAL","","36","2018-11-13","36","Before Dosing","1"
"S-00001","CL","S-00001-253","1152","1152","CS","Clinical Sign","CLINICAL SIGNS","NORMAL","NORMAL","","36","2018-11-13","36","Afternoon","4"
"S-00001","CL","S-00001-253","1153","1153","CS","Clinical Sign","CLINICAL SIGNS","NORMAL","NORMAL","","36","2018-11-13","36","End of the Day","5"
"S-00001","CL","S-00001-253","1154","1154","CS","Clinical Sign","CLINICAL SIGNS","NORMAL","NORMAL","","37","2018-11-14","37","Before Dosing","1"
"S-00001","CL","S-00001-253","1155","1155","CS","Clinical Sign","CLINICAL SIGNS","NORMAL","NORMAL","","37","2018-11-14","37","Afternoon","4"
"S-00001","CL","S-00001-253","1156","1156","CS","Clinical Sign","CLINICAL SIGNS","NORMAL","NORMAL","","37","2018-11-14","37","End of the Day","5"
"S-00001","CL","S-00001-253","1157","1157","CS","Clinical Sign","CLINICAL SIGNS","NORMAL","NORMAL","","38","2018-11-15","38","Before Dosing","1"
"S-00001","CL","S-00001-253","1158","1158","CS","Clinical Sign","CLINICAL SIGNS","NORMAL","NORMAL","","38","2018-11-15","38","Afternoon","4"
"S-00001","CL","S-00001-253","1159","1159","CS","Clinical Sign","CLINICAL SIGNS","NORMAL","NORMAL","","38","2018-11-15","38","End of the Day","5"
"S-00001","CL","S-00001-253","1160","1160","CS","Clinical Sign","CLINICAL SIGNS","NORMAL","NORMAL","","39","2018-11-16","39","Before Dosing","1"
"S-00001","CL","S-00001-253","1161","1161","CS","Clinical Sign","CLINICAL SIGNS","NORMAL","NORMAL","","39","2018-11-16","39","Afternoon","4"
"S-00001","CL","S-00001-253","1162","1162","CS","Clinical Sign","CLINICAL SIGNS","NORMAL","NORMAL","","39","2018-11-16","39","End of the Day","5"
"S-00001","CL","S-00001-253","1163","1163","CS","Clinical Sign","CLINICAL SIGNS","NORMAL","NORMAL","","40","2018-11-17","40","Before Dosing","1"
"S-00001","CL","S-00001-253","1164","1164","CS","Clinical Sign","CLINICAL SIGNS","NORMAL","NORMAL","","40","2018-11-17","40","Immediately after dosing","2"
"S-00001","CL","S-00001-253","1165","1165","CS","Clinical Sign","CLINICAL SIGNS","NORMAL","NORMAL","","41","2018-11-18","41","Before Dosing","1"
"S-00001","CL","S-00001-253","1166","1166","CS","Clinical Sign","CLINICAL SIGNS","NORMAL","NORMAL","","41","2018-11-18","41","Immediately after dosing","2"
"S-00001","CL","S-00001-253","1167","1167","CS","Clinical Sign","CLINICAL SIGNS","NORMAL","NORMAL","","42","2018-11-19","42","Before Dosing","1"
"S-00001","CL","S-00001-253","1168","1168","CS","Clinical Sign","CLINICAL SIGNS","NORMAL","NORMAL","","42","2018-11-19","42","Afternoon","4"
"S-00001","CL","S-00001-253","1169","1169","CS","Clinical Sign","CLINICAL SIGNS","NORMAL","NORMAL","","42","2018-11-19","42","End of the Day","5"
"S-00001","CL","S-00001-253","1170","1170","CS","Clinical Sign","CLINICAL SIGNS","NORMAL","NORMAL","","43","2018-11-20","43","Before Dosing","1"
"S-00001","CL","S-00001-253","1171","1171","CS","Clinical Sign","CLINICAL SIGNS","NORMAL","NORMAL","","43","2018-11-20","43","Afternoon","4"
"S-00001","CL","S-00001-253","1172","1172","CS","Clinical Sign","CLINICAL SIGNS","NORMAL","NORMAL","","43","2018-11-20","43","End of the Day","5"
"S-00001","CL","S-00001-253","1173","1173","CS","Clinical Sign","CLINICAL SIGNS","NORMAL","NORMAL","","44","2018-11-21","44","Before Dosing","1"
"S-00001","CL","S-00001-253","1174","1174","CS","Clinical Sign","CLINICAL SIGNS","NORMAL","NORMAL","","44","2018-11-21","44","Afternoon","4"
"S-00001","CL","S-00001-253","1175","1175","CS","Clinical Sign","CLINICAL SIGNS","NORMAL","NORMAL","","44","2018-11-21","44","End of the Day","5"
"S-00001","CL","S-00001-253","1176","1176","CS","Clinical Sign","CLINICAL SIGNS","NORMAL","NORMAL","","45","2018-11-22","45","Before Dosing","1"
"S-00001","CL","S-00001-253","1177","1177","CS","Clinical Sign","CLINICAL SIGNS","NORMAL","NORMAL","","45","2018-11-22","45","Afternoon","4"
"S-00001","CL","S-00001-253","1178","1178","CS","Clinical Sign","CLINICAL SIGNS","NORMAL","NORMAL","","45","2018-11-22","45","End of the Day","5"
"S-00001","CL","S-00001-253","1179","1179","CS","Clinical Sign","CLINICAL SIGNS","NORMAL","NORMAL","","46","2018-11-23","46","Before Dosing","1"
"S-00001","CL","S-00001-254","1180","1180","CS","Clinical Sign","CLINICAL SIGNS","NORMAL","NORMAL","","1","2018-10-09","1","Immediately after dosing","2"
"S-00001","CL","S-00001-254","1181","1181","CS","Clinical Sign","CLINICAL SIGNS","NORMAL","NORMAL","","1","2018-10-09","1","0.5h after treatment","3"
"S-00001","CL","S-00001-254","1182","1182","CS","Clinical Sign","CLINICAL SIGNS","NORMAL","NORMAL","","1","2018-10-09","1","Afternoon","4"
"S-00001","CL","S-00001-254","1183","1183","CS","Clinical Sign","CLINICAL SIGNS","NORMAL","NORMAL","","1","2018-10-09","1","End of the Day","5"
"S-00001","CL","S-00001-254","1184","1184","CS","Clinical Sign","CLINICAL SIGNS","NORMAL","NORMAL","","2","2018-10-10","2","Before Dosing","1"
"S-00001","CL","S-00001-254","1185","1185","CS","Clinical Sign","CLINICAL SIGNS","NORMAL","NORMAL","","2","2018-10-10","2","Immediately after dosing","2"
"S-00001","CL","S-00001-254","1186","1186","CS","Clinical Sign","CLINICAL SIGNS","NORMAL","NORMAL","","2","2018-10-10","2","0.5h after treatment","3"
"S-00001","CL","S-00001-254","1187","1187","CS","Clinical Sign","CLINICAL SIGNS","NORMAL","NORMAL","","2","2018-10-10","2","Afternoon","4"
"S-00001","CL","S-00001-254","1188","1188","CS","Clinical Sign","CLINICAL SIGNS","NORMAL","NORMAL","","2","2018-10-10","2","End of the Day","5"
"S-00001","CL","S-00001-254","1189","1189","CS","Clinical Sign","CLINICAL SIGNS","NORMAL","NORMAL","","3","2018-10-11","3","Before Dosing","1"
"S-00001","CL","S-00001-254","1190","1190","CS","Clinical Sign","CLINICAL SIGNS","NORMAL","NORMAL","","3","2018-10-11","3","Immediately after dosing","2"
"S-00001","CL","S-00001-254","1191","1191","CS","Clinical Sign","CLINICAL SIGNS","NORMAL","NORMAL","","3","2018-10-11","3","0.5h after treatment","3"
"S-00001","CL","S-00001-254","1192","1192","CS","Clinical Sign","CLINICAL SIGNS","NORMAL","NORMAL","","3","2018-10-11","3","Afternoon","4"
"S-00001","CL","S-00001-254","1193","1193","CS","Clinical Sign","CLINICAL SIGNS","NORMAL","NORMAL","","3","2018-10-11","3","End of the Day","5"
"S-00001","CL","S-00001-254","1194","1194","CS","Clinical Sign","CLINICAL SIGNS","NORMAL","NORMAL","","4","2018-10-12","4","Before Dosing","1"
"S-00001","CL","S-00001-254","1195","1195","CS","Clinical Sign","CLINICAL SIGNS","NORMAL","NORMAL","","4","2018-10-12","4","Immediately after dosing","2"
"S-00001","CL","S-00001-254","1196","1196","CS","Clinical Sign","CLINICAL SIGNS","NORMAL","NORMAL","","4","2018-10-12","4","0.5h after treatment","3"
"S-00001","CL","S-00001-254","1197","1197","CS","Clinical Sign","CLINICAL SIGNS","NORMAL","NORMAL","","4","2018-10-12","4","Afternoon","4"
"S-00001","CL","S-00001-254","1198","1198","CS","Clinical Sign","CLINICAL SIGNS","NORMAL","NORMAL","","4","2018-10-12","4","End of the Day","5"
"S-00001","CL","S-00001-254","1199","1199","CS","Clinical Sign","CLINICAL SIGNS","NORMAL","NORMAL","","5","2018-10-13","5","Before Dosing","1"
"S-00001","CL","S-00001-254","1200","1200","CS","Clinical Sign","CLINICAL SIGNS","NORMAL","NORMAL","","5","2018-10-13","5","Immediately after dosing","2"
"S-00001","CL","S-00001-254","1201","1201","CS","Clinical Sign","CLINICAL SIGNS","NORMAL","NORMAL","","6","2018-10-14","6","Before Dosing","1"
"S-00001","CL","S-00001-254","1202","1202","CS","Clinical Sign","CLINICAL SIGNS","NORMAL","NORMAL","","6","2018-10-14","6","Immediately after dosing","2"
"S-00001","CL","S-00001-254","1203","1203","CS","Clinical Sign","CLINICAL SIGNS","NORMAL","NORMAL","","7","2018-10-15","7","Before Dosing","1"
"S-00001","CL","S-00001-254","1204","1204","CS","Clinical Sign","CLINICAL SIGNS","NORMAL","NORMAL","","7","2018-10-15","7","Afternoon","4"
"S-00001","CL","S-00001-254","1205","1205","CS","Clinical Sign","CLINICAL SIGNS","NORMAL","NORMAL","","7","2018-10-15","7","End of the Day","5"
"S-00001","CL","S-00001-254","1206","1206","CS","Clinical Sign","CLINICAL SIGNS","NORMAL","NORMAL","","8","2018-10-16","8","Before Dosing","1"
"S-00001","CL","S-00001-254","1207","1207","CS","Clinical Sign","CLINICAL SIGNS","NORMAL","NORMAL","","8","2018-10-16","8","Afternoon","4"
"S-00001","CL","S-00001-254","1208","1208","CS","Clinical Sign","CLINICAL SIGNS","NORMAL","NORMAL","","8","2018-10-16","8","End of the Day","5"
"S-00001","CL","S-00001-254","1209","1209","CS","Clinical Sign","CLINICAL SIGNS","NORMAL","NORMAL","","9","2018-10-17","9","Before Dosing","1"
"S-00001","CL","S-00001-254","1210","1210","CS","Clinical Sign","CLINICAL SIGNS","NORMAL","NORMAL","","9","2018-10-17","9","Afternoon","4"
"S-00001","CL","S-00001-254","1211","1211","CS","Clinical Sign","CLINICAL SIGNS","NORMAL","NORMAL","","9","2018-10-17","9","End of the Day","5"
"S-00001","CL","S-00001-254","1212","1212","CS","Clinical Sign","CLINICAL SIGNS","NORMAL","NORMAL","","10","2018-10-18","10","Before Dosing","1"
"S-00001","CL","S-00001-254","1213","1213","CS","Clinical Sign","CLINICAL SIGNS","NORMAL","NORMAL","","10","2018-10-18","10","Afternoon","4"
"S-00001","CL","S-00001-254","1214","1214","CS","Clinical Sign","CLINICAL SIGNS","NORMAL","NORMAL","","10","2018-10-18","10","End of the Day","5"
"S-00001","CL","S-00001-254","1215","1215","CS","Clinical Sign","CLINICAL SIGNS","NORMAL","NORMAL","","11","2018-10-19","11","Before Dosing","1"
"S-00001","CL","S-00001-254","1216","1216","CS","Clinical Sign","CLINICAL SIGNS","NORMAL","NORMAL","","11","2018-10-19","11","Afternoon","4"
"S-00001","CL","S-00001-254","1217","1217","CS","Clinical Sign","CLINICAL SIGNS","NORMAL","NORMAL","","11","2018-10-19","11","End of the Day","5"
"S-00001","CL","S-00001-254","1218","1218","CS","Clinical Sign","CLINICAL SIGNS","NORMAL","NORMAL","","12","2018-10-20","12","Before Dosing","1"
"S-00001","CL","S-00001-254","1219","1219","CS","Clinical Sign","CLINICAL SIGNS","NORMAL","NORMAL","","12","2018-10-20","12","Immediately after dosing","2"
"S-00001","CL","S-00001-254","1220","1220","CS","Clinical Sign","CLINICAL SIGNS","NORMAL","NORMAL","","13","2018-10-21","13","Before Dosing","1"
"S-00001","CL","S-00001-254","1221","1221","CS","Clinical Sign","CLINICAL SIGNS","NORMAL","NORMAL","","13","2018-10-21","13","Immediately after dosing","2"
"S-00001","CL","S-00001-254","1222","1222","CS","Clinical Sign","CLINICAL SIGNS","NORMAL","NORMAL","","14","2018-10-22","14","Before Dosing","1"
"S-00001","CL","S-00001-254","1223","1223","CS","Clinical Sign","CLINICAL SIGNS","NORMAL","NORMAL","","14","2018-10-22","14","Afternoon","4"
"S-00001","CL","S-00001-254","1224","1224","CS","Clinical Sign","CLINICAL SIGNS","NORMAL","NORMAL","","14","2018-10-22","14","End of the Day","5"
"S-00001","CL","S-00001-254","1225","1225","CS","Clinical Sign","CLINICAL SIGNS","NORMAL","NORMAL","","15","2018-10-23","15","Before Dosing","1"
"S-00001","CL","S-00001-254","1226","1226","CS","Clinical Sign","CLINICAL SIGNS","NORMAL","NORMAL","","15","2018-10-23","15","Afternoon","4"
"S-00001","CL","S-00001-254","1227","1227","CS","Clinical Sign","CLINICAL SIGNS","NORMAL","NORMAL","","15","2018-10-23","15","End of the Day","5"
"S-00001","CL","S-00001-254","1228","1228","CS","Clinical Sign","CLINICAL SIGNS","NORMAL","NORMAL","","16","2018-10-24","16","Before Dosing","1"
"S-00001","CL","S-00001-254","1229","1229","CS","Clinical Sign","CLINICAL SIGNS","NORMAL","NORMAL","","16","2018-10-24","16","Afternoon","4"
"S-00001","CL","S-00001-254","1230","1230","CS","Clinical Sign","CLINICAL SIGNS","NORMAL","NORMAL","","16","2018-10-24","16","End of the Day","5"
"S-00001","CL","S-00001-254","1231","1231","CS","Clinical Sign","CLINICAL SIGNS","NORMAL","NORMAL","","17","2018-10-25","17","Before Dosing","1"
"S-00001","CL","S-00001-254","1232","1232","CS","Clinical Sign","CLINICAL SIGNS","NORMAL","NORMAL","","17","2018-10-25","17","Afternoon","4"
"S-00001","CL","S-00001-254","1233","1233","CS","Clinical Sign","CLINICAL SIGNS","NORMAL","NORMAL","","17","2018-10-25","17","End of the Day","5"
"S-00001","CL","S-00001-254","1234","1234","CS","Clinical Sign","CLINICAL SIGNS","NORMAL","NORMAL","","18","2018-10-26","18","Before Dosing","1"
"S-00001","CL","S-00001-254","1235","1235","CS","Clinical Sign","CLINICAL SIGNS","NORMAL","NORMAL","","18","2018-10-26","18","Afternoon","4"
"S-00001","CL","S-00001-254","1236","1236","CS","Clinical Sign","CLINICAL SIGNS","NORMAL","NORMAL","","18","2018-10-26","18","End of the Day","5"
"S-00001","CL","S-00001-254","1237","1237","CS","Clinical Sign","CLINICAL SIGNS","NORMAL","NORMAL","","19","2018-10-27","19","Before Dosing","1"
"S-00001","CL","S-00001-254","1238","1238","CS","Clinical Sign","CLINICAL SIGNS","NORMAL","NORMAL","","19","2018-10-27","19","Immediately after dosing","2"
"S-00001","CL","S-00001-254","1239","1239","CS","Clinical Sign","CLINICAL SIGNS","NORMAL","NORMAL","","20","2018-10-28","20","Before Dosing","1"
"S-00001","CL","S-00001-254","1240","1240","CS","Clinical Sign","CLINICAL SIGNS","NORMAL","NORMAL","","20","2018-10-28","20","Immediately after dosing","2"
"S-00001","CL","S-00001-254","1241","1241","CS","Clinical Sign","CLINICAL SIGNS","NORMAL","NORMAL","","21","2018-10-29","21","Before Dosing","1"
"S-00001","CL","S-00001-254","1242","1242","CS","Clinical Sign","CLINICAL SIGNS","NORMAL","NORMAL","","21","2018-10-29","21","Afternoon","4"
"S-00001","CL","S-00001-254","1243","1243","CS","Clinical Sign","CLINICAL SIGNS","NORMAL","NORMAL","","21","2018-10-29","21","End of the Day","5"
"S-00001","CL","S-00001-254","1244","1244","CS","Clinical Sign","CLINICAL SIGNS","NORMAL","NORMAL","","22","2018-10-30","22","Before Dosing","1"
"S-00001","CL","S-00001-254","1245","1245","CS","Clinical Sign","CLINICAL SIGNS","NORMAL","NORMAL","","22","2018-10-30","22","Afternoon","4"
"S-00001","CL","S-00001-254","1246","1246","CS","Clinical Sign","CLINICAL SIGNS","NORMAL","NORMAL","","22","2018-10-30","22","End of the Day","5"
"S-00001","CL","S-00001-254","1247","1247","CS","Clinical Sign","CLINICAL SIGNS","NORMAL","NORMAL","","23","2018-10-31","23","Before Dosing","1"
"S-00001","CL","S-00001-254","1248","1248","CS","Clinical Sign","CLINICAL SIGNS","NORMAL","NORMAL","","23","2018-10-31","23","Afternoon","4"
"S-00001","CL","S-00001-254","1249","1249","CS","Clinical Sign","CLINICAL SIGNS","NORMAL","NORMAL","","23","2018-10-31","23","End of the Day","5"
"S-00001","CL","S-00001-254","1250","1250","CS","Clinical Sign","CLINICAL SIGNS","NORMAL","NORMAL","","24","2018-11-01","24","Before Dosing","1"
"S-00001","CL","S-00001-254","1251","1251","CS","Clinical Sign","CLINICAL SIGNS","NORMAL","NORMAL","","24","2018-11-01","24","Afternoon","4"
"S-00001","CL","S-00001-254","1252","1252","CS","Clinical Sign","CLINICAL SIGNS","NORMAL","NORMAL","","24","2018-11-01","24","End of the Day","5"
"S-00001","CL","S-00001-254","1253","1253","CS","Clinical Sign","CLINICAL SIGNS","NORMAL","NORMAL","","25","2018-11-02","25","Before Dosing","1"
"S-00001","CL","S-00001-254","1254","1254","CS","Clinical Sign","CLINICAL SIGNS","NORMAL","NORMAL","","25","2018-11-02","25","Afternoon","4"
"S-00001","CL","S-00001-254","1255","1255","CS","Clinical Sign","CLINICAL SIGNS","NORMAL","NORMAL","","25","2018-11-02","25","End of the Day","5"
"S-00001","CL","S-00001-254","1256","1256","CS","Clinical Sign","CLINICAL SIGNS","NORMAL","NORMAL","","26","2018-11-03","26","Before Dosing","1"
"S-00001","CL","S-00001-254","1257","1257","CS","Clinical Sign","CLINICAL SIGNS","NORMAL","NORMAL","","26","2018-11-03","26","Immediately after dosing","2"
"S-00001","CL","S-00001-254","1258","1258","CS","Clinical Sign","CLINICAL SIGNS","NORMAL","NORMAL","","27","2018-11-04","27","Before Dosing","1"
"S-00001","CL","S-00001-254","1259","1259","CS","Clinical Sign","CLINICAL SIGNS","NORMAL","NORMAL","","27","2018-11-04","27","Immediately after dosing","2"
"S-00001","CL","S-00001-254","1260","1260","CS","Clinical Sign","CLINICAL SIGNS","NORMAL","NORMAL","","28","2018-11-05","28","Before Dosing","1"
"S-00001","CL","S-00001-254","1261","1261","CS","Clinical Sign","CLINICAL SIGNS","NORMAL","NORMAL","","28","2018-11-05","28","Afternoon","4"
"S-00001","CL","S-00001-254","1262","1262","CS","Clinical Sign","CLINICAL SIGNS","NORMAL","NORMAL","","28","2018-11-05","28","End of the Day","5"
"S-00001","CL","S-00001-254","1263","1263","CS","Clinical Sign","CLINICAL SIGNS","NORMAL","NORMAL","","29","2018-11-06","29","Before Dosing","1"
"S-00001","CL","S-00001-254","1264","1264","CS","Clinical Sign","CLINICAL SIGNS","NORMAL","NORMAL","","29","2018-11-06","29","Afternoon","4"
"S-00001","CL","S-00001-254","1265","1265","CS","Clinical Sign","CLINICAL SIGNS","NORMAL","NORMAL","","29","2018-11-06","29","End of the Day","5"
"S-00001","CL","S-00001-254","1266","1266","CS","Clinical Sign","CLINICAL SIGNS","NORMAL","NORMAL","","30","2018-11-07","30","Before Dosing","1"
"S-00001","CL","S-00001-254","1267","1267","CS","Clinical Sign","CLINICAL SIGNS","NORMAL","NORMAL","","30","2018-11-07","30","Afternoon","4"
"S-00001","CL","S-00001-254","1268","1268","CS","Clinical Sign","CLINICAL SIGNS","NORMAL","NORMAL","","30","2018-11-07","30","End of the Day","5"
"S-00001","CL","S-00001-254","1269","1269","CS","Clinical Sign","CLINICAL SIGNS","NORMAL","NORMAL","","31","2018-11-08","31","Before Dosing","1"
"S-00001","CL","S-00001-254","1270","1270","CS","Clinical Sign","CLINICAL SIGNS","NORMAL","NORMAL","","31","2018-11-08","31","Afternoon","4"
"S-00001","CL","S-00001-254","1271","1271","CS","Clinical Sign","CLINICAL SIGNS","NORMAL","NORMAL","","31","2018-11-08","31","End of the Day","5"
"S-00001","CL","S-00001-254","1272","1272","CS","Clinical Sign","CLINICAL SIGNS","NORMAL","NORMAL","","32","2018-11-09","32","Before Dosing","1"
"S-00001","CL","S-00001-254","1273","1273","CS","Clinical Sign","CLINICAL SIGNS","NORMAL","NORMAL","","32","2018-11-09","32","Afternoon","4"
"S-00001","CL","S-00001-254","1274","1274","CS","Clinical Sign","CLINICAL SIGNS","NORMAL","NORMAL","","32","2018-11-09","32","End of the Day","5"
"S-00001","CL","S-00001-254","1275","1275","CS","Clinical Sign","CLINICAL SIGNS","NORMAL","NORMAL","","33","2018-11-10","33","Before Dosing","1"
"S-00001","CL","S-00001-254","1276","1276","CS","Clinical Sign","CLINICAL SIGNS","NORMAL","NORMAL","","33","2018-11-10","33","Immediately after dosing","2"
"S-00001","CL","S-00001-254","1277","1277","CS","Clinical Sign","CLINICAL SIGNS","NORMAL","NORMAL","","34","2018-11-11","34","Before Dosing","1"
"S-00001","CL","S-00001-254","1278","1278","CS","Clinical Sign","CLINICAL SIGNS","NORMAL","NORMAL","","34","2018-11-11","34","Immediately after dosing","2"
"S-00001","CL","S-00001-254","1279","1279","CS","Clinical Sign","CLINICAL SIGNS","NORMAL","NORMAL","","35","2018-11-12","35","Before Dosing","1"
"S-00001","CL","S-00001-254","1280","1280","CS","Clinical Sign","CLINICAL SIGNS","NORMAL","NORMAL","","35","2018-11-12","35","Afternoon","4"
"S-00001","CL","S-00001-254","1281","1281","CS","Clinical Sign","CLINICAL SIGNS","NORMAL","NORMAL","","35","2018-11-12","35","End of the Day","5"
"S-00001","CL","S-00001-254","1282","1282","CS","Clinical Sign","CLINICAL SIGNS","NORMAL","NORMAL","","36","2018-11-13","36","Before Dosing","1"
"S-00001","CL","S-00001-254","1283","1283","CS","Clinical Sign","CLINICAL SIGNS","NORMAL","NORMAL","","36","2018-11-13","36","Afternoon","4"
"S-00001","CL","S-00001-254","1284","1284","CS","Clinical Sign","CLINICAL SIGNS","NORMAL","NORMAL","","36","2018-11-13","36","End of the Day","5"
"S-00001","CL","S-00001-254","1285","1285","CS","Clinical Sign","CLINICAL SIGNS","NORMAL","NORMAL","","37","2018-11-14","37","Before Dosing","1"
"S-00001","CL","S-00001-254","1286","1286","CS","Clinical Sign","CLINICAL SIGNS","NORMAL","NORMAL","","37","2018-11-14","37","Afternoon","4"
"S-00001","CL","S-00001-254","1287","1287","CS","Clinical Sign","CLINICAL SIGNS","NORMAL","NORMAL","","37","2018-11-14","37","End of the Day","5"
"S-00001","CL","S-00001-254","1288","1288","CS","Clinical Sign","CLINICAL SIGNS","NORMAL","NORMAL","","38","2018-11-15","38","Before Dosing","1"
"S-00001","CL","S-00001-254","1289","1289","CS","Clinical Sign","CLINICAL SIGNS","NORMAL","NORMAL","","38","2018-11-15","38","Afternoon","4"
"S-00001","CL","S-00001-254","1290","1290","CS","Clinical Sign","CLINICAL SIGNS","NORMAL","NORMAL","","38","2018-11-15","38","End of the Day","5"
"S-00001","CL","S-00001-254","1291","1291","CS","Clinical Sign","CLINICAL SIGNS","NORMAL","NORMAL","","39","2018-11-16","39","Before Dosing","1"
"S-00001","CL","S-00001-254","1292","1292","CS","Clinical Sign","CLINICAL SIGNS","NORMAL","NORMAL","","39","2018-11-16","39","Afternoon","4"
"S-00001","CL","S-00001-254","1293","1293","CS","Clinical Sign","CLINICAL SIGNS","NORMAL","NORMAL","","39","2018-11-16","39","End of the Day","5"
"S-00001","CL","S-00001-254","1294","1294","CS","Clinical Sign","CLINICAL SIGNS","NORMAL","NORMAL","","40","2018-11-17","40","Before Dosing","1"
"S-00001","CL","S-00001-254","1295","1295","CS","Clinical Sign","CLINICAL SIGNS","NORMAL","NORMAL","","40","2018-11-17","40","Immediately after dosing","2"
"S-00001","CL","S-00001-254","1296","1296","CS","Clinical Sign","CLINICAL SIGNS","NORMAL","NORMAL","","41","2018-11-18","41","Before Dosing","1"
"S-00001","CL","S-00001-254","1297","1297","CS","Clinical Sign","CLINICAL SIGNS","NORMAL","NORMAL","","41","2018-11-18","41","Immediately after dosing","2"
"S-00001","CL","S-00001-254","1298","1298","CS","Clinical Sign","CLINICAL SIGNS","NORMAL","NORMAL","","42","2018-11-19","42","Before Dosing","1"
"S-00001","CL","S-00001-254","1299","1299","CS","Clinical Sign","CLINICAL SIGNS","NORMAL","NORMAL","","42","2018-11-19","42","Afternoon","4"
"S-00001","CL","S-00001-254","1300","1300","CS","Clinical Sign","CLINICAL SIGNS","NORMAL","NORMAL","","42","2018-11-19","42","End of the Day","5"
"S-00001","CL","S-00001-254","1301","1301","CS","Clinical Sign","CLINICAL SIGNS","NORMAL","NORMAL","","43","2018-11-20","43","Before Dosing","1"
"S-00001","CL","S-00001-254","1302","1302","CS","Clinical Sign","CLINICAL SIGNS","NORMAL","NORMAL","","43","2018-11-20","43","Afternoon","4"
"S-00001","CL","S-00001-254","1303","1303","CS","Clinical Sign","CLINICAL SIGNS","NORMAL","NORMAL","","43","2018-11-20","43","End of the Day","5"
"S-00001","CL","S-00001-254","1304","1304","CS","Clinical Sign","CLINICAL SIGNS","NORMAL","NORMAL","","44","2018-11-21","44","Before Dosing","1"
"S-00001","CL","S-00001-254","1305","1305","CS","Clinical Sign","CLINICAL SIGNS","NORMAL","NORMAL","","44","2018-11-21","44","Afternoon","4"
"S-00001","CL","S-00001-254","1306","1306","CS","Clinical Sign","CLINICAL SIGNS","NORMAL","NORMAL","","44","2018-11-21","44","End of the Day","5"
"S-00001","CL","S-00001-254","1307","1307","CS","Clinical Sign","CLINICAL SIGNS","NORMAL","NORMAL","","45","2018-11-22","45","Before Dosing","1"
"S-00001","CL","S-00001-254","1308","1308","CS","Clinical Sign","CLINICAL SIGNS","NORMAL","NORMAL","","45","2018-11-22","45","Afternoon","4"
"S-00001","CL","S-00001-254","1309","1309","CS","Clinical Sign","CLINICAL SIGNS","NORMAL","NORMAL","","45","2018-11-22","45","End of the Day","5"
"S-00001","CL","S-00001-254","1310","1310","CS","Clinical Sign","CLINICAL SIGNS","NORMAL","NORMAL","","46","2018-11-23","46","Before Dosing","1"
"S-00001","CL","S-00001-255","1311","1311","CS","Clinical Sign","CLINICAL SIGNS","NORMAL","NORMAL","","1","2018-10-09","1","Immediately after dosing","2"
"S-00001","CL","S-00001-255","1312","1312","CS","Clinical Sign","CLINICAL SIGNS","NORMAL","NORMAL","","1","2018-10-09","1","0.5h after treatment","3"
"S-00001","CL","S-00001-255","1313","1313","CS","Clinical Sign","CLINICAL SIGNS","NORMAL","NORMAL","","1","2018-10-09","1","Afternoon","4"
"S-00001","CL","S-00001-255","1314","1314","CS","Clinical Sign","CLINICAL SIGNS","NORMAL","NORMAL","","1","2018-10-09","1","End of the Day","5"
"S-00001","CL","S-00001-255","1315","1315","CS","Clinical Sign","CLINICAL SIGNS","NORMAL","NORMAL","","2","2018-10-10","2","Before Dosing","1"
"S-00001","CL","S-00001-255","1316","1316","CS","Clinical Sign","CLINICAL SIGNS","NORMAL","NORMAL","","2","2018-10-10","2","Immediately after dosing","2"
"S-00001","CL","S-00001-255","1317","1317","CS","Clinical Sign","CLINICAL SIGNS","NORMAL","NORMAL","","2","2018-10-10","2","0.5h after treatment","3"
"S-00001","CL","S-00001-255","1318","1318","CS","Clinical Sign","CLINICAL SIGNS","NORMAL","NORMAL","","2","2018-10-10","2","Afternoon","4"
"S-00001","CL","S-00001-255","1319","1319","CS","Clinical Sign","CLINICAL SIGNS","NORMAL","NORMAL","","2","2018-10-10","2","End of the Day","5"
"S-00001","CL","S-00001-255","1320","1320","CS","Clinical Sign","CLINICAL SIGNS","NORMAL","NORMAL","","3","2018-10-11","3","Before Dosing","1"
"S-00001","CL","S-00001-255","1321","1321","CS","Clinical Sign","CLINICAL SIGNS","NORMAL","NORMAL","","3","2018-10-11","3","Immediately after dosing","2"
"S-00001","CL","S-00001-255","1322","1322","CS","Clinical Sign","CLINICAL SIGNS","NORMAL","NORMAL","","3","2018-10-11","3","0.5h after treatment","3"
"S-00001","CL","S-00001-255","1323","1323","CS","Clinical Sign","CLINICAL SIGNS","NORMAL","NORMAL","","3","2018-10-11","3","Afternoon","4"
"S-00001","CL","S-00001-255","1324","1324","CS","Clinical Sign","CLINICAL SIGNS","NORMAL","NORMAL","","3","2018-10-11","3","End of the Day","5"
"S-00001","CL","S-00001-255","1325","1325","CS","Clinical Sign","CLINICAL SIGNS","NORMAL","NORMAL","","4","2018-10-12","4","Before Dosing","1"
"S-00001","CL","S-00001-255","1326","1326","CS","Clinical Sign","CLINICAL SIGNS","NORMAL","NORMAL","","4","2018-10-12","4","Immediately after dosing","2"
"S-00001","CL","S-00001-255","1327","1327","CS","Clinical Sign","CLINICAL SIGNS","NORMAL","NORMAL","","4","2018-10-12","4","0.5h after treatment","3"
"S-00001","CL","S-00001-255","1328","1328","CS","Clinical Sign","CLINICAL SIGNS","NORMAL","NORMAL","","4","2018-10-12","4","Afternoon","4"
"S-00001","CL","S-00001-255","1329","1329","CS","Clinical Sign","CLINICAL SIGNS","NORMAL","NORMAL","","4","2018-10-12","4","End of the Day","5"
"S-00001","CL","S-00001-255","1330","1330","CS","Clinical Sign","CLINICAL SIGNS","NORMAL","NORMAL","","5","2018-10-13","5","Before Dosing","1"
"S-00001","CL","S-00001-255","1331","1331","CS","Clinical Sign","CLINICAL SIGNS","NORMAL","NORMAL","","5","2018-10-13","5","Immediately after dosing","2"
"S-00001","CL","S-00001-255","1332","1332","CS","Clinical Sign","CLINICAL SIGNS","NORMAL","NORMAL","","6","2018-10-14","6","Before Dosing","1"
"S-00001","CL","S-00001-255","1333","1333","CS","Clinical Sign","CLINICAL SIGNS","NORMAL","NORMAL","","6","2018-10-14","6","Immediately after dosing","2"
"S-00001","CL","S-00001-255","1334","1334","CS","Clinical Sign","CLINICAL SIGNS","NORMAL","NORMAL","","7","2018-10-15","7","Before Dosing","1"
"S-00001","CL","S-00001-255","1335","1335","CS","Clinical Sign","CLINICAL SIGNS","NORMAL","NORMAL","","7","2018-10-15","7","Afternoon","4"
"S-00001","CL","S-00001-255","1336","1336","CS","Clinical Sign","CLINICAL SIGNS","NORMAL","NORMAL","","7","2018-10-15","7","End of the Day","5"
"S-00001","CL","S-00001-255","1337","1337","CS","Clinical Sign","CLINICAL SIGNS","NORMAL","NORMAL","","8","2018-10-16","8","Before Dosing","1"
"S-00001","CL","S-00001-255","1338","1338","CS","Clinical Sign","CLINICAL SIGNS","NORMAL","NORMAL","","8","2018-10-16","8","Afternoon","4"
"S-00001","CL","S-00001-255","1339","1339","CS","Clinical Sign","CLINICAL SIGNS","NORMAL","NORMAL","","8","2018-10-16","8","End of the Day","5"
"S-00001","CL","S-00001-255","1340","1340","CS","Clinical Sign","CLINICAL SIGNS","NORMAL","NORMAL","","9","2018-10-17","9","Before Dosing","1"
"S-00001","CL","S-00001-255","1341","1341","CS","Clinical Sign","CLINICAL SIGNS","NORMAL","NORMAL","","9","2018-10-17","9","Afternoon","4"
"S-00001","CL","S-00001-255","1342","1342","CS","Clinical Sign","CLINICAL SIGNS","NORMAL","NORMAL","","9","2018-10-17","9","End of the Day","5"
"S-00001","CL","S-00001-255","1343","1343","CS","Clinical Sign","CLINICAL SIGNS","NORMAL","NORMAL","","10","2018-10-18","10","Before Dosing","1"
"S-00001","CL","S-00001-255","1344","1344","CS","Clinical Sign","CLINICAL SIGNS","NORMAL","NORMAL","","10","2018-10-18","10","Afternoon","4"
"S-00001","CL","S-00001-255","1345","1345","CS","Clinical Sign","CLINICAL SIGNS","NORMAL","NORMAL","","10","2018-10-18","10","End of the Day","5"
"S-00001","CL","S-00001-255","1346","1346","CS","Clinical Sign","CLINICAL SIGNS","NORMAL","NORMAL","","11","2018-10-19","11","Before Dosing","1"
"S-00001","CL","S-00001-255","1347","1347","CS","Clinical Sign","CLINICAL SIGNS","NORMAL","NORMAL","","11","2018-10-19","11","Afternoon","4"
"S-00001","CL","S-00001-255","1348","1348","CS","Clinical Sign","CLINICAL SIGNS","NORMAL","NORMAL","","11","2018-10-19","11","End of the Day","5"
"S-00001","CL","S-00001-255","1349","1349","CS","Clinical Sign","CLINICAL SIGNS","NORMAL","NORMAL","","12","2018-10-20","12","Before Dosing","1"
"S-00001","CL","S-00001-255","1350","1350","CS","Clinical Sign","CLINICAL SIGNS","NORMAL","NORMAL","","12","2018-10-20","12","Immediately after dosing","2"
"S-00001","CL","S-00001-255","1351","1351","CS","Clinical Sign","CLINICAL SIGNS","NORMAL","NORMAL","","13","2018-10-21","13","Before Dosing","1"
"S-00001","CL","S-00001-255","1352","1352","CS","Clinical Sign","CLINICAL SIGNS","NORMAL","NORMAL","","13","2018-10-21","13","Immediately after dosing","2"
"S-00001","CL","S-00001-255","1353","1353","CS","Clinical Sign","CLINICAL SIGNS","NORMAL","NORMAL","","14","2018-10-22","14","Before Dosing","1"
"S-00001","CL","S-00001-255","1354","1354","CS","Clinical Sign","CLINICAL SIGNS","NORMAL","NORMAL","","14","2018-10-22","14","Afternoon","4"
"S-00001","CL","S-00001-255","1355","1355","CS","Clinical Sign","CLINICAL SIGNS","NORMAL","NORMAL","","14","2018-10-22","14","End of the Day","5"
"S-00001","CL","S-00001-255","1356","1356","CS","Clinical Sign","CLINICAL SIGNS","NORMAL","NORMAL","","15","2018-10-23","15","Before Dosing","1"
"S-00001","CL","S-00001-255","1357","1357","CS","Clinical Sign","CLINICAL SIGNS","NORMAL","NORMAL","","15","2018-10-23","15","Afternoon","4"
"S-00001","CL","S-00001-255","1358","1358","CS","Clinical Sign","CLINICAL SIGNS","NORMAL","NORMAL","","15","2018-10-23","15","End of the Day","5"
"S-00001","CL","S-00001-255","1359","1359","CS","Clinical Sign","CLINICAL SIGNS","NORMAL","NORMAL","","16","2018-10-24","16","Before Dosing","1"
"S-00001","CL","S-00001-255","1360","1360","CS","Clinical Sign","CLINICAL SIGNS","NORMAL","NORMAL","","16","2018-10-24","16","Afternoon","4"
"S-00001","CL","S-00001-255","1361","1361","CS","Clinical Sign","CLINICAL SIGNS","NORMAL","NORMAL","","16","2018-10-24","16","End of the Day","5"
"S-00001","CL","S-00001-255","1362","1362","CS","Clinical Sign","CLINICAL SIGNS","NORMAL","NORMAL","","17","2018-10-25","17","Before Dosing","1"
"S-00001","CL","S-00001-255","1363","1363","CS","Clinical Sign","CLINICAL SIGNS","NORMAL","NORMAL","","17","2018-10-25","17","Afternoon","4"
"S-00001","CL","S-00001-255","1364","1364","CS","Clinical Sign","CLINICAL SIGNS","NORMAL","NORMAL","","17","2018-10-25","17","End of the Day","5"
"S-00001","CL","S-00001-255","1365","1365","CS","Clinical Sign","CLINICAL SIGNS","NORMAL","NORMAL","","18","2018-10-26","18","Before Dosing","1"
"S-00001","CL","S-00001-255","1366","1366","CS","Clinical Sign","CLINICAL SIGNS","NORMAL","NORMAL","","18","2018-10-26","18","Afternoon","4"
"S-00001","CL","S-00001-255","1367","1367","CS","Clinical Sign","CLINICAL SIGNS","NORMAL","NORMAL","","18","2018-10-26","18","End of the Day","5"
"S-00001","CL","S-00001-255","1368","1368","CS","Clinical Sign","CLINICAL SIGNS","NORMAL","NORMAL","","19","2018-10-27","19","Before Dosing","1"
"S-00001","CL","S-00001-255","1369","1369","CS","Clinical Sign","CLINICAL SIGNS","NORMAL","NORMAL","","19","2018-10-27","19","Immediately after dosing","2"
"S-00001","CL","S-00001-255","1370","1370","CS","Clinical Sign","CLINICAL SIGNS","NORMAL","NORMAL","","20","2018-10-28","20","Before Dosing","1"
"S-00001","CL","S-00001-255","1371","1371","CS","Clinical Sign","CLINICAL SIGNS","NORMAL","NORMAL","","20","2018-10-28","20","Immediately after dosing","2"
"S-00001","CL","S-00001-255","1372","1372","CS","Clinical Sign","CLINICAL SIGNS","NORMAL","NORMAL","","21","2018-10-29","21","Before Dosing","1"
"S-00001","CL","S-00001-255","1373","1373","CS","Clinical Sign","CLINICAL SIGNS","NORMAL","NORMAL","","21","2018-10-29","21","Afternoon","4"
"S-00001","CL","S-00001-255","1374","1374","CS","Clinical Sign","CLINICAL SIGNS","NORMAL","NORMAL","","21","2018-10-29","21","End of the Day","5"
"S-00001","CL","S-00001-255","1375","1375","CS","Clinical Sign","CLINICAL SIGNS","NORMAL","NORMAL","","22","2018-10-30","22","Before Dosing","1"
"S-00001","CL","S-00001-255","1376","1376","CS","Clinical Sign","CLINICAL SIGNS","NORMAL","NORMAL","","22","2018-10-30","22","Afternoon","4"
"S-00001","CL","S-00001-255","1377","1377","CS","Clinical Sign","CLINICAL SIGNS","NORMAL","NORMAL","","22","2018-10-30","22","End of the Day","5"
"S-00001","CL","S-00001-255","1378","1378","CS","Clinical Sign","CLINICAL SIGNS","NORMAL","NORMAL","","23","2018-10-31","23","Before Dosing","1"
"S-00001","CL","S-00001-255","1379","1379","CS","Clinical Sign","CLINICAL SIGNS","NORMAL","NORMAL","","23","2018-10-31","23","Afternoon","4"
"S-00001","CL","S-00001-255","1380","1380","CS","Clinical Sign","CLINICAL SIGNS","NORMAL","NORMAL","","23","2018-10-31","23","End of the Day","5"
"S-00001","CL","S-00001-255","1381","1381","CS","Clinical Sign","CLINICAL SIGNS","NORMAL","NORMAL","","24","2018-11-01","24","Before Dosing","1"
"S-00001","CL","S-00001-255","1382","1382","CS","Clinical Sign","CLINICAL SIGNS","NORMAL","NORMAL","","24","2018-11-01","24","Afternoon","4"
"S-00001","CL","S-00001-255","1383","1383","CS","Clinical Sign","CLINICAL SIGNS","NORMAL","NORMAL","","24","2018-11-01","24","End of the Day","5"
"S-00001","CL","S-00001-255","1384","1384","CS","Clinical Sign","CLINICAL SIGNS","NORMAL","NORMAL","","25","2018-11-02","25","Before Dosing","1"
"S-00001","CL","S-00001-255","1385","1385","CS","Clinical Sign","CLINICAL SIGNS","NORMAL","NORMAL","","25","2018-11-02","25","Afternoon","4"
"S-00001","CL","S-00001-255","1386","1386","CS","Clinical Sign","CLINICAL SIGNS","NORMAL","NORMAL","","25","2018-11-02","25","End of the Day","5"
"S-00001","CL","S-00001-255","1387","1387","CS","Clinical Sign","CLINICAL SIGNS","NORMAL","NORMAL","","26","2018-11-03","26","Before Dosing","1"
"S-00001","CL","S-00001-255","1388","1388","CS","Clinical Sign","CLINICAL SIGNS","NORMAL","NORMAL","","26","2018-11-03","26","Immediately after dosing","2"
"S-00001","CL","S-00001-255","1389","1389","CS","Clinical Sign","CLINICAL SIGNS","NORMAL","NORMAL","","27","2018-11-04","27","Before Dosing","1"
"S-00001","CL","S-00001-255","1390","1390","CS","Clinical Sign","CLINICAL SIGNS","NORMAL","NORMAL","","27","2018-11-04","27","Immediately after dosing","2"
