"STUDYID","DOMAIN","USUBJID","EXSEQ","EXTRT","EXDOSE","EXDOSU","EXDOSFRM","EXDOSFRQ","EXROUTE","EXLOT","EXTRTV","EXVAMT","EXVAMTU","EXSTDTC","EXSTDY"
"S-00001","EX","S-00001-151","1","ACT-709478","0","mg/kg","SOLUTION","QD","ORAL GAVAGE","","Methylcellulose 0.5% / polyoxyethylene sorbitan monooleate (Tween 80) 0.5% / water (w/v/v)","10","mL/kg","2018-10-09","1"
"S-00001","EX","S-00001-151","2","ACT-709478","0","mg/kg","SOLUTION","QD","ORAL GAVAGE","","Methylcellulose 0.5% / polyoxyethylene sorbitan monooleate (Tween 80) 0.5% / water (w/v/v)","10","mL/kg","2018-10-10","2"
"S-00001","EX","S-00001-151","3","ACT-709478","0","mg/kg","SOLUTION","QD","ORAL GAVAGE","","Methylcellulose 0.5% / polyoxyethylene sorbitan monooleate (Tween 80) 0.5% / water (w/v/v)","10","mL/kg","2018-10-11","3"
"S-00001","EX","S-00001-151","4","ACT-709478","0","mg/kg","SOLUTION","QD","ORAL GAVAGE","","Methylcellulose 0.5% / polyoxyethylene sorbitan monooleate (Tween 80) 0.5% / water (w/v/v)","10","mL/kg","2018-10-12","4"
"S-00001","EX","S-00001-151","5","ACT-709478","0","mg/kg","SOLUTION","QD","ORAL GAVAGE","","Methylcellulose 0.5% / polyoxyethylene sorbitan monooleate (Tween 80) 0.5% / water (w/v/v)","10","mL/kg","2018-10-13","5"
"S-00001","EX","S-00001-151","6","ACT-709478","0","mg/kg","SOLUTION","QD","ORAL GAVAGE","","Methylcellulose 0.5% / polyoxyethylene sorbitan monooleate (Tween 80) 0.5% / water (w/v/v)","10","mL/kg","2018-10-14","6"
"S-00001","EX","S-00001-151","7","ACT-709478","0","mg/kg","SOLUTION","QD","ORAL GAVAGE","","Methylcellulose 0.5% / polyoxyethylene sorbitan monooleate (Tween 80) 0.5% / water (w/v/v)","10","mL/kg","2018-10-15","7"
"S-00001","EX","S-00001-151","8","ACT-709478","0","mg/kg","SOLUTION","QD","ORAL GAVAGE","","Methylcellulose 0.5% / polyoxyethylene sorbitan monooleate (Tween 80) 0.5% / water (w/v/v)","10","mL/kg","2018-10-16","8"
"S-00001","EX","S-00001-151","9","ACT-709478","0","mg/kg","SOLUTION","QD","ORAL GAVAGE","","Methylcellulose 0.5% / polyoxyethylene sorbitan monooleate (Tween 80) 0.5% / water (w/v/v)","10","mL/kg","2018-10-17","9"
"S-00001","EX","S-00001-151","10","ACT-709478","0","mg/kg","SOLUTION","QD","ORAL GAVAGE","","Methylcellulose 0.5% / polyoxyethylene sorbitan monooleate (Tween 80) 0.5% / water (w/v/v)","10","mL/kg","2018-10-18","10"
"S-00001","EX","S-00001-151","11","ACT-709478","0","mg/kg","SOLUTION","QD","ORAL GAVAGE","","Methylcellulose 0.5% / polyoxyethylene sorbitan monooleate (Tween 80) 0.5% / water (w/v/v)","10","mL/kg","2018-10-19","11"
"S-00001","EX","S-00001-151","12","ACT-709478","0","mg/kg","SOLUTION","QD","ORAL GAVAGE","","Methylcellulose 0.5% / polyoxyethylene sorbitan monooleate (Tween 80) 0.5% / water (w/v/v)","10","mL/kg","2018-10-20","12"
"S-00001","EX","S-00001-151","13","ACT-709478","0","mg/kg","SOLUTION","QD","ORAL GAVAGE","","Methylcellulose 0.5% / polyoxyethylene sorbitan monooleate (Tween 80) 0.5% / water (w/v/v)","10","mL/kg","2018-10-21","13"
"S-00001","EX","S-00001-151","14","ACT-709478","0","mg/kg","SOLUTION","QD","ORAL GAVAGE","","Methylcellulose 0.5% / polyoxyethylene sorbitan monooleate (Tween 80) 0.5% / water (w/v/v)","10","mL/kg","2018-10-22","14"
"S-00001","EX","S-00001-151","15","ACT-709478","0","mg/kg","SOLUTION","QD","ORAL GAVAGE","","Methylcellulose 0.5% / polyoxyethylene sorbitan monooleate (Tween 80) 0.5% / water (w/v/v)","10","mL/kg","2018-10-23","15"
"S-00001","EX","S-00001-151","16","ACT-709478","0","mg/kg","SOLUTION","QD","ORAL GAVAGE","","Methylcellulose 0.5% / polyoxyethylene sorbitan monooleate (Tween 80) 0.5% / water (w/v/v)","10","mL/kg","2018-10-24","16"
"S-00001","EX","S-00001-151","17","ACT-709478","0","mg/kg","SOLUTION","QD","ORAL GAVAGE","","Methylcellulose 0.5% / polyoxyethylene sorbitan monooleate (Tween 80) 0.5% / water (w/v/v)","10","mL/kg","2018-10-25","17"
"S-00001","EX","S-00001-151","18","ACT-709478","0","mg/kg","SOLUTION","QD","ORAL GAVAGE","","Methylcellulose 0.5% / polyoxyethylene sorbitan monooleate (Tween 80) 0.5% / water (w/v/v)","10","mL/kg","2018-10-26","18"
"S-00001","EX","S-00001-151","19","ACT-709478","0","mg/kg","SOLUTION","QD","ORAL GAVAGE","","Methylcellulose 0.5% / polyoxyethylene sorbitan monooleate (Tween 80) 0.5% / water (w/v/v)","10","mL/kg","2018-10-27","19"
"S-00001","EX","S-00001-151","20","ACT-709478","0","mg/kg","SOLUTION","QD","ORAL GAVAGE","","Methylcellulose 0.5% / polyoxyethylene sorbitan monooleate (Tween 80) 0.5% / water (w/v/v)","10","mL/kg","2018-10-28","20"
"S-00001","EX","S-00001-151","21","ACT-709478","0","mg/kg","SOLUTION","QD","ORAL GAVAGE","","Methylcellulose 0.5% / polyoxyethylene sorbitan monooleate (Tween 80) 0.5% / water (w/v/v)","10","mL/kg","2018-10-29","21"
"S-00001","EX","S-00001-151","22","ACT-709478","0","mg/kg","SOLUTION","QD","ORAL GAVAGE","","Methylcellulose 0.5% / polyoxyethylene sorbitan monooleate (Tween 80) 0.5% / water (w/v/v)","10","mL/kg","2018-10-30","22"
"S-00001","EX","S-00001-151","23","ACT-709478","0","mg/kg","SOLUTION","QD","ORAL GAVAGE","","Methylcellulose 0.5% / polyoxyethylene sorbitan monooleate (Tween 80) 0.5% / water (w/v/v)","10","mL/kg","2018-10-31","23"
"S-00001","EX","S-00001-151","24","ACT-709478","0","mg/kg","SOLUTION","QD","ORAL GAVAGE","","Methylcellulose 0.5% / polyoxyethylene sorbitan monooleate (Tween 80) 0.5% / water (w/v/v)","10","mL/kg","2018-11-01","24"
"S-00001","EX","S-00001-151","25","ACT-709478","0","mg/kg","SOLUTION","QD","ORAL GAVAGE","","Methylcellulose 0.5% / polyoxyethylene sorbitan monooleate (Tween 80) 0.5% / water (w/v/v)","10","mL/kg","2018-11-02","25"
"S-00001","EX","S-00001-151","26","ACT-709478","0","mg/kg","SOLUTION","QD","ORAL GAVAGE","","Methylcellulose 0.5% / polyoxyethylene sorbitan monooleate (Tween 80) 0.5% / water (w/v/v)","10","mL/kg","2018-11-03","26"
"S-00001","EX","S-00001-151","27","ACT-709478","0","mg/kg","SOLUTION","QD","ORAL GAVAGE","","Methylcellulose 0.5% / polyoxyethylene sorbitan monooleate (Tween 80) 0.5% / water (w/v/v)","10","mL/kg","2018-11-04","27"
"S-00001","EX","S-00001-151","28","ACT-709478","0","mg/kg","SOLUTION","QD","ORAL GAVAGE","","Methylcellulose 0.5% / polyoxyethylene sorbitan monooleate (Tween 80) 0.5% / water (w/v/v)","10","mL/kg","2018-11-05","28"
"S-00001","EX","S-00001-151","29","ACT-709478","0","mg/kg","SOLUTION","QD","ORAL GAVAGE","","Methylcellulose 0.5% / polyoxyethylene sorbitan monooleate (Tween 80) 0.5% / water (w/v/v)","10","mL/kg","2018-11-06","29"
"S-00001","EX","S-00001-151","30","ACT-709478","0","mg/kg","SOLUTION","QD","ORAL GAVAGE","","Methylcellulose 0.5% / polyoxyethylene sorbitan monooleate (Tween 80) 0.5% / water (w/v/v)","10","mL/kg","2018-11-07","30"
"S-00001","EX","S-00001-151","31","ACT-709478","0","mg/kg","SOLUTION","QD","ORAL GAVAGE","","Methylcellulose 0.5% / polyoxyethylene sorbitan monooleate (Tween 80) 0.5% / water (w/v/v)","10","mL/kg","2018-11-08","31"
"S-00001","EX","S-00001-151","32","ACT-709478","0","mg/kg","SOLUTION","QD","ORAL GAVAGE","","Methylcellulose 0.5% / polyoxyethylene sorbitan monooleate (Tween 80) 0.5% / water (w/v/v)","10","mL/kg","2018-11-09","32"
"S-00001","EX","S-00001-151","33","ACT-709478","0","mg/kg","SOLUTION","QD","ORAL GAVAGE","","Methylcellulose 0.5% / polyoxyethylene sorbitan monooleate (Tween 80) 0.5% / water (w/v/v)","10","mL/kg","2018-11-10","33"
"S-00001","EX","S-00001-151","34","ACT-709478","0","mg/kg","SOLUTION","QD","ORAL GAVAGE","","Methylcellulose 0.5% / polyoxyethylene sorbitan monooleate (Tween 80) 0.5% / water (w/v/v)","10","mL/kg","2018-11-11","34"
"S-00001","EX","S-00001-151","35","ACT-709478","0","mg/kg","SOLUTION","QD","ORAL GAVAGE","","Methylcellulose 0.5% / polyoxyethylene sorbitan monooleate (Tween 80) 0.5% / water (w/v/v)","10","mL/kg","2018-11-12","35"
"S-00001","EX","S-00001-151","36","ACT-709478","0","mg/kg","SOLUTION","QD","ORAL GAVAGE","","Methylcellulose 0.5% / polyoxyethylene sorbitan monooleate (Tween 80) 0.5% / water (w/v/v)","10","mL/kg","2018-11-13","36"
"S-00001","EX","S-00001-151","37","ACT-709478","0","mg/kg","SOLUTION","QD","ORAL GAVAGE","","Methylcellulose 0.5% / polyoxyethylene sorbitan monooleate (Tween 80) 0.5% / water (w/v/v)","10","mL/kg","2018-11-14","37"
"S-00001","EX","S-00001-151","38","ACT-709478","0","mg/kg","SOLUTION","QD","ORAL GAVAGE","","Methylcellulose 0.5% / polyoxyethylene sorbitan monooleate (Tween 80) 0.5% / water (w/v/v)","10","mL/kg","2018-11-15","38"
"S-00001","EX","S-00001-151","39","ACT-709478","0","mg/kg","SOLUTION","QD","ORAL GAVAGE","","Methylcellulose 0.5% / polyoxyethylene sorbitan monooleate (Tween 80) 0.5% / water (w/v/v)","10","mL/kg","2018-11-16","39"
"S-00001","EX","S-00001-151","40","ACT-709478","0","mg/kg","SOLUTION","QD","ORAL GAVAGE","","Methylcellulose 0.5% / polyoxyethylene sorbitan monooleate (Tween 80) 0.5% / water (w/v/v)","10","mL/kg","2018-11-17","40"
"S-00001","EX","S-00001-151","41","ACT-709478","0","mg/kg","SOLUTION","QD","ORAL GAVAGE","","Methylcellulose 0.5% / polyoxyethylene sorbitan monooleate (Tween 80) 0.5% / water (w/v/v)","10","mL/kg","2018-11-18","41"
"S-00001","EX","S-00001-151","42","ACT-709478","0","mg/kg","SOLUTION","QD","ORAL GAVAGE","","Methylcellulose 0.5% / polyoxyethylene sorbitan monooleate (Tween 80) 0.5% / water (w/v/v)","10","mL/kg","2018-11-19","42"
"S-00001","EX","S-00001-151","43","ACT-709478","0","mg/kg","SOLUTION","QD","ORAL GAVAGE","","Methylcellulose 0.5% / polyoxyethylene sorbitan monooleate (Tween 80) 0.5% / water (w/v/v)","10","mL/kg","2018-11-20","43"
"S-00001","EX","S-00001-151","44","ACT-709478","0","mg/kg","SOLUTION","QD","ORAL GAVAGE","","Methylcellulose 0.5% / polyoxyethylene sorbitan monooleate (Tween 80) 0.5% / water (w/v/v)","10","mL/kg","2018-11-21","44"
"S-00001","EX","S-00001-151","45","ACT-709478","0","mg/kg","SOLUTION","QD","ORAL GAVAGE","","Methylcellulose 0.5% / polyoxyethylene sorbitan monooleate (Tween 80) 0.5% / water (w/v/v)","10","mL/kg","2018-11-22","45"
"S-00001","EX","S-00001-152","46","ACT-709478","0","mg/kg","SOLUTION","QD","ORAL GAVAGE","","Methylcellulose 0.5% / polyoxyethylene sorbitan monooleate (Tween 80) 0.5% / water (w/v/v)","10","mL/kg","2018-10-09","1"
"S-00001","EX","S-00001-152","47","ACT-709478","0","mg/kg","SOLUTION","QD","ORAL GAVAGE","","Methylcellulose 0.5% / polyoxyethylene sorbitan monooleate (Tween 80) 0.5% / water (w/v/v)","10","mL/kg","2018-10-10","2"
"S-00001","EX","S-00001-152","48","ACT-709478","0","mg/kg","SOLUTION","QD","ORAL GAVAGE","","Methylcellulose 0.5% / polyoxyethylene sorbitan monooleate (Tween 80) 0.5% / water (w/v/v)","10","mL/kg","2018-10-11","3"
"S-00001","EX","S-00001-152","49","ACT-709478","0","mg/kg","SOLUTION","QD","ORAL GAVAGE","","Methylcellulose 0.5% / polyoxyethylene sorbitan monooleate (Tween 80) 0.5% / water (w/v/v)","10","mL/kg","2018-10-12","4"
"S-00001","EX","S-00001-152","50","ACT-709478","0","mg/kg","SOLUTION","QD","ORAL GAVAGE","","Methylcellulose 0.5% / polyoxyethylene sorbitan monooleate (Tween 80) 0.5% / water (w/v/v)","10","mL/kg","2018-10-13","5"
"S-00001","EX","S-00001-152","51","ACT-709478","0","mg/kg","SOLUTION","QD","ORAL GAVAGE","","Methylcellulose 0.5% / polyoxyethylene sorbitan monooleate (Tween 80) 0.5% / water (w/v/v)","10","mL/kg","2018-10-14","6"
"S-00001","EX","S-00001-152","52","ACT-709478","0","mg/kg","SOLUTION","QD","ORAL GAVAGE","","Methylcellulose 0.5% / polyoxyethylene sorbitan monooleate (Tween 80) 0.5% / water (w/v/v)","10","mL/kg","2018-10-15","7"
"S-00001","EX","S-00001-152","53","ACT-709478","0","mg/kg","SOLUTION","QD","ORAL GAVAGE","","Methylcellulose 0.5% / polyoxyethylene sorbitan monooleate (Tween 80) 0.5% / water (w/v/v)","10","mL/kg","2018-10-16","8"
"S-00001","EX","S-00001-152","54","ACT-709478","0","mg/kg","SOLUTION","QD","ORAL GAVAGE","","Methylcellulose 0.5% / polyoxyethylene sorbitan monooleate (Tween 80) 0.5% / water (w/v/v)","10","mL/kg","2018-10-17","9"
"S-00001","EX","S-00001-152","55","ACT-709478","0","mg/kg","SOLUTION","QD","ORAL GAVAGE","","Methylcellulose 0.5% / polyoxyethylene sorbitan monooleate (Tween 80) 0.5% / water (w/v/v)","10","mL/kg","2018-10-18","10"
"S-00001","EX","S-00001-152","56","ACT-709478","0","mg/kg","SOLUTION","QD","ORAL GAVAGE","","Methylcellulose 0.5% / polyoxyethylene sorbitan monooleate (Tween 80) 0.5% / water (w/v/v)","10","mL/kg","2018-10-19","11"
"S-00001","EX","S-00001-152","57","ACT-709478","0","mg/kg","SOLUTION","QD","ORAL GAVAGE","","Methylcellulose 0.5% / polyoxyethylene sorbitan monooleate (Tween 80) 0.5% / water (w/v/v)","10","mL/kg","2018-10-20","12"
"S-00001","EX","S-00001-152","58","ACT-709478","0","mg/kg","SOLUTION","QD","ORAL GAVAGE","","Methylcellulose 0.5% / polyoxyethylene sorbitan monooleate (Tween 80) 0.5% / water (w/v/v)","10","mL/kg","2018-10-21","13"
"S-00001","EX","S-00001-152","59","ACT-709478","0","mg/kg","SOLUTION","QD","ORAL GAVAGE","","Methylcellulose 0.5% / polyoxyethylene sorbitan monooleate (Tween 80) 0.5% / water (w/v/v)","10","mL/kg","2018-10-22","14"
"S-00001","EX","S-00001-152","60","ACT-709478","0","mg/kg","SOLUTION","QD","ORAL GAVAGE","","Methylcellulose 0.5% / polyoxyethylene sorbitan monooleate (Tween 80) 0.5% / water (w/v/v)","10","mL/kg","2018-10-23","15"
"S-00001","EX","S-00001-152","61","ACT-709478","0","mg/kg","SOLUTION","QD","ORAL GAVAGE","","Methylcellulose 0.5% / polyoxyethylene sorbitan monooleate (Tween 80) 0.5% / water (w/v/v)","10","mL/kg","2018-10-24","16"
"S-00001","EX","S-00001-152","62","ACT-709478","0","mg/kg","SOLUTION","QD","ORAL GAVAGE","","Methylcellulose 0.5% / polyoxyethylene sorbitan monooleate (Tween 80) 0.5% / water (w/v/v)","10","mL/kg","2018-10-25","17"
"S-00001","EX","S-00001-152","63","ACT-709478","0","mg/kg","SOLUTION","QD","ORAL GAVAGE","","Methylcellulose 0.5% / polyoxyethylene sorbitan monooleate (Tween 80) 0.5% / water (w/v/v)","10","mL/kg","2018-10-26","18"
"S-00001","EX","S-00001-152","64","ACT-709478","0","mg/kg","SOLUTION","QD","ORAL GAVAGE","","Methylcellulose 0.5% / polyoxyethylene sorbitan monooleate (Tween 80) 0.5% / water (w/v/v)","10","mL/kg","2018-10-27","19"
"S-00001","EX","S-00001-152","65","ACT-709478","0","mg/kg","SOLUTION","QD","ORAL GAVAGE","","Methylcellulose 0.5% / polyoxyethylene sorbitan monooleate (Tween 80) 0.5% / water (w/v/v)","10","mL/kg","2018-10-28","20"
"S-00001","EX","S-00001-152","66","ACT-709478","0","mg/kg","SOLUTION","QD","ORAL GAVAGE","","Methylcellulose 0.5% / polyoxyethylene sorbitan monooleate (Tween 80) 0.5% / water (w/v/v)","10","mL/kg","2018-10-29","21"
"S-00001","EX","S-00001-152","67","ACT-709478","0","mg/kg","SOLUTION","QD","ORAL GAVAGE","","Methylcellulose 0.5% / polyoxyethylene sorbitan monooleate (Tween 80) 0.5% / water (w/v/v)","10","mL/kg","2018-10-30","22"
"S-00001","EX","S-00001-152","68","ACT-709478","0","mg/kg","SOLUTION","QD","ORAL GAVAGE","","Methylcellulose 0.5% / polyoxyethylene sorbitan monooleate (Tween 80) 0.5% / water (w/v/v)","10","mL/kg","2018-10-31","23"
"S-00001","EX","S-00001-152","69","ACT-709478","0","mg/kg","SOLUTION","QD","ORAL GAVAGE","","Methylcellulose 0.5% / polyoxyethylene sorbitan monooleate (Tween 80) 0.5% / water (w/v/v)","10","mL/kg","2018-11-01","24"
"S-00001","EX","S-00001-152","70","ACT-709478","0","mg/kg","SOLUTION","QD","ORAL GAVAGE","","Methylcellulose 0.5% / polyoxyethylene sorbitan monooleate (Tween 80) 0.5% / water (w/v/v)","10","mL/kg","2018-11-02","25"
"S-00001","EX","S-00001-152","71","ACT-709478","0","mg/kg","SOLUTION","QD","ORAL GAVAGE","","Methylcellulose 0.5% / polyoxyethylene sorbitan monooleate (Tween 80) 0.5% / water (w/v/v)","10","mL/kg","2018-11-03","26"
"S-00001","EX","S-00001-152","72","ACT-709478","0","mg/kg","SOLUTION","QD","ORAL GAVAGE","","Methylcellulose 0.5% / polyoxyethylene sorbitan monooleate (Tween 80) 0.5% / water (w/v/v)","10","mL/kg","2018-11-04","27"
"S-00001","EX","S-00001-152","73","ACT-709478","0","mg/kg","SOLUTION","QD","ORAL GAVAGE","","Methylcellulose 0.5% / polyoxyethylene sorbitan monooleate (Tween 80) 0.5% / water (w/v/v)","10","mL/kg","2018-11-05","28"
"S-00001","EX","S-00001-152","74","ACT-709478","0","mg/kg","SOLUTION","QD","ORAL GAVAGE","","Methylcellulose 0.5% / polyoxyethylene sorbitan monooleate (Tween 80) 0.5% / water (w/v/v)","10","mL/kg","2018-11-06","29"
"S-00001","EX","S-00001-152","75","ACT-709478","0","mg/kg","SOLUTION","QD","ORAL GAVAGE","","Methylcellulose 0.5% / polyoxyethylene sorbitan monooleate (Tween 80) 0.5% / water (w/v/v)","10","mL/kg","2018-11-07","30"
"S-00001","EX","S-00001-152","76","ACT-709478","0","mg/kg","SOLUTION","QD","ORAL GAVAGE","","Methylcellulose 0.5% / polyoxyethylene sorbitan monooleate (Tween 80) 0.5% / water (w/v/v)","10","mL/kg","2018-11-08","31"
"S-00001","EX","S-00001-152","77","ACT-709478","0","mg/kg","SOLUTION","QD","ORAL GAVAGE","","Methylcellulose 0.5% / polyoxyethylene sorbitan monooleate (Tween 80) 0.5% / water (w/v/v)","10","mL/kg","2018-11-09","32"
"S-00001","EX","S-00001-152","78","ACT-709478","0","mg/kg","SOLUTION","QD","ORAL GAVAGE","","Methylcellulose 0.5% / polyoxyethylene sorbitan monooleate (Tween 80) 0.5% / water (w/v/v)","10","mL/kg","2018-11-10","33"
"S-00001","EX","S-00001-152","79","ACT-709478","0","mg/kg","SOLUTION","QD","ORAL GAVAGE","","Methylcellulose 0.5% / polyoxyethylene sorbitan monooleate (Tween 80) 0.5% / water (w/v/v)","10","mL/kg","2018-11-11","34"
"S-00001","EX","S-00001-152","80","ACT-709478","0","mg/kg","SOLUTION","QD","ORAL GAVAGE","","Methylcellulose 0.5% / polyoxyethylene sorbitan monooleate (Tween 80) 0.5% / water (w/v/v)","10","mL/kg","2018-11-12","35"
"S-00001","EX","S-00001-152","81","ACT-709478","0","mg/kg","SOLUTION","QD","ORAL GAVAGE","","Methylcellulose 0.5% / polyoxyethylene sorbitan monooleate (Tween 80) 0.5% / water (w/v/v)","10","mL/kg","2018-11-13","36"
"S-00001","EX","S-00001-152","82","ACT-709478","0","mg/kg","SOLUTION","QD","ORAL GAVAGE","","Methylcellulose 0.5% / polyoxyethylene sorbitan monooleate (Tween 80) 0.5% / water (w/v/v)","10","mL/kg","2018-11-14","37"
"S-00001","EX","S-00001-152","83","ACT-709478","0","mg/kg","SOLUTION","QD","ORAL GAVAGE","","Methylcellulose 0.5% / polyoxyethylene sorbitan monooleate (Tween 80) 0.5% / water (w/v/v)","10","mL/kg","2018-11-15","38"
"S-00001","EX","S-00001-152","84","ACT-709478","0","mg/kg","SOLUTION","QD","ORAL GAVAGE","","Methylcellulose 0.5% / polyoxyethylene sorbitan monooleate (Tween 80) 0.5% / water (w/v/v)","10","mL/kg","2018-11-16","39"
"S-00001","EX","S-00001-152","85","ACT-709478","0","mg/kg","SOLUTION","QD","ORAL GAVAGE","","Methylcellulose 0.5% / polyoxyethylene sorbitan monooleate (Tween 80) 0.5% / water (w/v/v)","10","mL/kg","2018-11-17","40"
"S-00001","EX","S-00001-152","86","ACT-709478","0","mg/kg","SOLUTION","QD","ORAL GAVAGE","","Methylcellulose 0.5% / polyoxyethylene sorbitan monooleate (Tween 80) 0.5% / water (w/v/v)","10","mL/kg","2018-11-18","41"
"S-00001","EX","S-00001-152","87","ACT-709478","0","mg/kg","SOLUTION","QD","ORAL GAVAGE","","Methylcellulose 0.5% / polyoxyethylene sorbitan monooleate (Tween 80) 0.5% / water (w/v/v)","10","mL/kg","2018-11-19","42"
"S-00001","EX","S-00001-152","88","ACT-709478","0","mg/kg","SOLUTION","QD","ORAL GAVAGE","","Methylcellulose 0.5% / polyoxyethylene sorbitan monooleate (Tween 80) 0.5% / water (w/v/v)","10","mL/kg","2018-11-20","43"
"S-00001","EX","S-00001-152","89","ACT-709478","0","mg/kg","SOLUTION","QD","ORAL GAVAGE","","Methylcellulose 0.5% / polyoxyethylene sorbitan monooleate (Tween 80) 0.5% / water (w/v/v)","10","mL/kg","2018-11-21","44"
"S-00001","EX","S-00001-152","90","ACT-709478","0","mg/kg","SOLUTION","QD","ORAL GAVAGE","","Methylcellulose 0.5% / polyoxyethylene sorbitan monooleate (Tween 80) 0.5% / water (w/v/v)","10","mL/kg","2018-11-22","45"
"S-00001","EX","S-00001-153","91","ACT-709478","0","mg/kg","SOLUTION","QD","ORAL GAVAGE","","Methylcellulose 0.5% / polyoxyethylene sorbitan monooleate (Tween 80) 0.5% / water (w/v/v)","10","mL/kg","2018-10-09","1"
"S-00001","EX","S-00001-153","92","ACT-709478","0","mg/kg","SOLUTION","QD","ORAL GAVAGE","","Methylcellulose 0.5% / polyoxyethylene sorbitan monooleate (Tween 80) 0.5% / water (w/v/v)","10","mL/kg","2018-10-10","2"
"S-00001","EX","S-00001-153","93","ACT-709478","0","mg/kg","SOLUTION","QD","ORAL GAVAGE","","Methylcellulose 0.5% / polyoxyethylene sorbitan monooleate (Tween 80) 0.5% / water (w/v/v)","10","mL/kg","2018-10-11","3"
"S-00001","EX","S-00001-153","94","ACT-709478","0","mg/kg","SOLUTION","QD","ORAL GAVAGE","","Methylcellulose 0.5% / polyoxyethylene sorbitan monooleate (Tween 80) 0.5% / water (w/v/v)","10","mL/kg","2018-10-12","4"
"S-00001","EX","S-00001-153","95","ACT-709478","0","mg/kg","SOLUTION","QD","ORAL GAVAGE","","Methylcellulose 0.5% / polyoxyethylene sorbitan monooleate (Tween 80) 0.5% / water (w/v/v)","10","mL/kg","2018-10-13","5"
"S-00001","EX","S-00001-153","96","ACT-709478","0","mg/kg","SOLUTION","QD","ORAL GAVAGE","","Methylcellulose 0.5% / polyoxyethylene sorbitan monooleate (Tween 80) 0.5% / water (w/v/v)","10","mL/kg","2018-10-14","6"
"S-00001","EX","S-00001-153","97","ACT-709478","0","mg/kg","SOLUTION","QD","ORAL GAVAGE","","Methylcellulose 0.5% / polyoxyethylene sorbitan monooleate (Tween 80) 0.5% / water (w/v/v)","10","mL/kg","2018-10-15","7"
"S-00001","EX","S-00001-153","98","ACT-709478","0","mg/kg","SOLUTION","QD","ORAL GAVAGE","","Methylcellulose 0.5% / polyoxyethylene sorbitan monooleate (Tween 80) 0.5% / water (w/v/v)","10","mL/kg","2018-10-16","8"
"S-00001","EX","S-00001-153","99","ACT-709478","0","mg/kg","SOLUTION","QD","ORAL GAVAGE","","Methylcellulose 0.5% / polyoxyethylene sorbitan monooleate (Tween 80) 0.5% / water (w/v/v)","10","mL/kg","2018-10-17","9"
"S-00001","EX","S-00001-153","100","ACT-709478","0","mg/kg","SOLUTION","QD","ORAL GAVAGE","","Methylcellulose 0.5% / polyoxyethylene sorbitan monooleate (Tween 80) 0.5% / water (w/v/v)","10","mL/kg","2018-10-18","10"
"S-00001","EX","S-00001-153","101","ACT-709478","0","mg/kg","SOLUTION","QD","ORAL GAVAGE","","Methylcellulose 0.5% / polyoxyethylene sorbitan monooleate (Tween 80) 0.5% / water (w/v/v)","10","mL/kg","2018-10-19","11"
"S-00001","EX","S-00001-153","102","ACT-709478","0","mg/kg","SOLUTION","QD","ORAL GAVAGE","","Methylcellulose 0.5% / polyoxyethylene sorbitan monooleate (Tween 80) 0.5% / water (w/v/v)","10","mL/kg","2018-10-20","12"
"S-00001","EX","S-00001-153","103","ACT-709478","0","mg/kg","SOLUTION","QD","ORAL GAVAGE","","Methylcellulose 0.5% / polyoxyethylene sorbitan monooleate (Tween 80) 0.5% / water (w/v/v)","10","mL/kg","2018-10-21","13"
"S-00001","EX","S-00001-153","104","ACT-709478","0","mg/kg","SOLUTION","QD","ORAL GAVAGE","","Methylcellulose 0.5% / polyoxyethylene sorbitan monooleate (Tween 80) 0.5% / water (w/v/v)","10","mL/kg","2018-10-22","14"
"S-00001","EX","S-00001-153","105","ACT-709478","0","mg/kg","SOLUTION","QD","ORAL GAVAGE","","Methylcellulose 0.5% / polyoxyethylene sorbitan monooleate (Tween 80) 0.5% / water (w/v/v)","10","mL/kg","2018-10-23","15"
"S-00001","EX","S-00001-153","106","ACT-709478","0","mg/kg","SOLUTION","QD","ORAL GAVAGE","","Methylcellulose 0.5% / polyoxyethylene sorbitan monooleate (Tween 80) 0.5% / water (w/v/v)","10","mL/kg","2018-10-24","16"
"S-00001","EX","S-00001-153","107","ACT-709478","0","mg/kg","SOLUTION","QD","ORAL GAVAGE","","Methylcellulose 0.5% / polyoxyethylene sorbitan monooleate (Tween 80) 0.5% / water (w/v/v)","10","mL/kg","2018-10-25","17"
"S-00001","EX","S-00001-153","108","ACT-709478","0","mg/kg","SOLUTION","QD","ORAL GAVAGE","","Methylcellulose 0.5% / polyoxyethylene sorbitan monooleate (Tween 80) 0.5% / water (w/v/v)","10","mL/kg","2018-10-26","18"
"S-00001","EX","S-00001-153","109","ACT-709478","0","mg/kg","SOLUTION","QD","ORAL GAVAGE","","Methylcellulose 0.5% / polyoxyethylene sorbitan monooleate (Tween 80) 0.5% / water (w/v/v)","10","mL/kg","2018-10-27","19"
"S-00001","EX","S-00001-153","110","ACT-709478","0","mg/kg","SOLUTION","QD","ORAL GAVAGE","","Methylcellulose 0.5% / polyoxyethylene sorbitan monooleate (Tween 80) 0.5% / water (w/v/v)","10","mL/kg","2018-10-28","20"
"S-00001","EX","S-00001-153","111","ACT-709478","0","mg/kg","SOLUTION","QD","ORAL GAVAGE","","Methylcellulose 0.5% / polyoxyethylene sorbitan monooleate (Tween 80) 0.5% / water (w/v/v)","10","mL/kg","2018-10-29","21"
"S-00001","EX","S-00001-153","112","ACT-709478","0","mg/kg","SOLUTION","QD","ORAL GAVAGE","","Methylcellulose 0.5% / polyoxyethylene sorbitan monooleate (Tween 80) 0.5% / water (w/v/v)","10","mL/kg","2018-10-30","22"
"S-00001","EX","S-00001-153","113","ACT-709478","0","mg/kg","SOLUTION","QD","ORAL GAVAGE","","Methylcellulose 0.5% / polyoxyethylene sorbitan monooleate (Tween 80) 0.5% / water (w/v/v)","10","mL/kg","2018-10-31","23"
"S-00001","EX","S-00001-153","114","ACT-709478","0","mg/kg","SOLUTION","QD","ORAL GAVAGE","","Methylcellulose 0.5% / polyoxyethylene sorbitan monooleate (Tween 80) 0.5% / water (w/v/v)","10","mL/kg","2018-11-01","24"
"S-00001","EX","S-00001-153","115","ACT-709478","0","mg/kg","SOLUTION","QD","ORAL GAVAGE","","Methylcellulose 0.5% / polyoxyethylene sorbitan monooleate (Tween 80) 0.5% / water (w/v/v)","10","mL/kg","2018-11-02","25"
"S-00001","EX","S-00001-153","116","ACT-709478","0","mg/kg","SOLUTION","QD","ORAL GAVAGE","","Methylcellulose 0.5% / polyoxyethylene sorbitan monooleate (Tween 80) 0.5% / water (w/v/v)","10","mL/kg","2018-11-03","26"
"S-00001","EX","S-00001-153","117","ACT-709478","0","mg/kg","SOLUTION","QD","ORAL GAVAGE","","Methylcellulose 0.5% / polyoxyethylene sorbitan monooleate (Tween 80) 0.5% / water (w/v/v)","10","mL/kg","2018-11-04","27"
"S-00001","EX","S-00001-153","118","ACT-709478","0","mg/kg","SOLUTION","QD","ORAL GAVAGE","","Methylcellulose 0.5% / polyoxyethylene sorbitan monooleate (Tween 80) 0.5% / water (w/v/v)","10","mL/kg","2018-11-05","28"
"S-00001","EX","S-00001-153","119","ACT-709478","0","mg/kg","SOLUTION","QD","ORAL GAVAGE","","Methylcellulose 0.5% / polyoxyethylene sorbitan monooleate (Tween 80) 0.5% / water (w/v/v)","10","mL/kg","2018-11-06","29"
"S-00001","EX","S-00001-153","120","ACT-709478","0","mg/kg","SOLUTION","QD","ORAL GAVAGE","","Methylcellulose 0.5% / polyoxyethylene sorbitan monooleate (Tween 80) 0.5% / water (w/v/v)","10","mL/kg","2018-11-07","30"
"S-00001","EX","S-00001-153","121","ACT-709478","0","mg/kg","SOLUTION","QD","ORAL GAVAGE","","Methylcellulose 0.5% / polyoxyethylene sorbitan monooleate (Tween 80) 0.5% / water (w/v/v)","10","mL/kg","2018-11-08","31"
"S-00001","EX","S-00001-153","122","ACT-709478","0","mg/kg","SOLUTION","QD","ORAL GAVAGE","","Methylcellulose 0.5% / polyoxyethylene sorbitan monooleate (Tween 80) 0.5% / water (w/v/v)","10","mL/kg","2018-11-09","32"
"S-00001","EX","S-00001-153","123","ACT-709478","0","mg/kg","SOLUTION","QD","ORAL GAVAGE","","Methylcellulose 0.5% / polyoxyethylene sorbitan monooleate (Tween 80) 0.5% / water (w/v/v)","10","mL/kg","2018-11-10","33"
"S-00001","EX","S-00001-153","124","ACT-709478","0","mg/kg","SOLUTION","QD","ORAL GAVAGE","","Methylcellulose 0.5% / polyoxyethylene sorbitan monooleate (Tween 80) 0.5% / water (w/v/v)","10","mL/kg","2018-11-11","34"
"S-00001","EX","S-00001-153","125","ACT-709478","0","mg/kg","SOLUTION","QD","ORAL GAVAGE","","Methylcellulose 0.5% / polyoxyethylene sorbitan monooleate (Tween 80) 0.5% / water (w/v/v)","10","mL/kg","2018-11-12","35"
"S-00001","EX","S-00001-153","126","ACT-709478","0","mg/kg","SOLUTION","QD","ORAL GAVAGE","","Methylcellulose 0.5% / polyoxyethylene sorbitan monooleate (Tween 80) 0.5% / water (w/v/v)","10","mL/kg","2018-11-13","36"
"S-00001","EX","S-00001-153","127","ACT-709478","0","mg/kg","SOLUTION","QD","ORAL GAVAGE","","Methylcellulose 0.5% / polyoxyethylene sorbitan monooleate (Tween 80) 0.5% / water (w/v/v)","10","mL/kg","2018-11-14","37"
"S-00001","EX","S-00001-153","128","ACT-709478","0","mg/kg","SOLUTION","QD","ORAL GAVAGE","","Methylcellulose 0.5% / polyoxyethylene sorbitan monooleate (Tween 80) 0.5% / water (w/v/v)","10","mL/kg","2018-11-15","38"
"S-00001","EX","S-00001-153","129","ACT-709478","0","mg/kg","SOLUTION","QD","ORAL GAVAGE","","Methylcellulose 0.5% / polyoxyethylene sorbitan monooleate (Tween 80) 0.5% / water (w/v/v)","10","mL/kg","2018-11-16","39"
"S-00001","EX","S-00001-153","130","ACT-709478","0","mg/kg","SOLUTION","QD","ORAL GAVAGE","","Methylcellulose 0.5% / polyoxyethylene sorbitan monooleate (Tween 80) 0.5% / water (w/v/v)","10","mL/kg","2018-11-17","40"
"S-00001","EX","S-00001-153","131","ACT-709478","0","mg/kg","SOLUTION","QD","ORAL GAVAGE","","Methylcellulose 0.5% / polyoxyethylene sorbitan monooleate (Tween 80) 0.5% / water (w/v/v)","10","mL/kg","2018-11-18","41"
"S-00001","EX","S-00001-153","132","ACT-709478","0","mg/kg","SOLUTION","QD","ORAL GAVAGE","","Methylcellulose 0.5% / polyoxyethylene sorbitan monooleate (Tween 80) 0.5% / water (w/v/v)","10","mL/kg","2018-11-19","42"
"S-00001","EX","S-00001-153","133","ACT-709478","0","mg/kg","SOLUTION","QD","ORAL GAVAGE","","Methylcellulose 0.5% / polyoxyethylene sorbitan monooleate (Tween 80) 0.5% / water (w/v/v)","10","mL/kg","2018-11-20","43"
"S-00001","EX","S-00001-153","134","ACT-709478","0","mg/kg","SOLUTION","QD","ORAL GAVAGE","","Methylcellulose 0.5% / polyoxyethylene sorbitan monooleate (Tween 80) 0.5% / water (w/v/v)","10","mL/kg","2018-11-21","44"
"S-00001","EX","S-00001-153","135","ACT-709478","0","mg/kg","SOLUTION","QD","ORAL GAVAGE","","Methylcellulose 0.5% / polyoxyethylene sorbitan monooleate (Tween 80) 0.5% / water (w/v/v)","10","mL/kg","2018-11-22","45"
"S-00001","EX","S-00001-154","136","ACT-709478","0","mg/kg","SOLUTION","QD","ORAL GAVAGE","","Methylcellulose 0.5% / polyoxyethylene sorbitan monooleate (Tween 80) 0.5% / water (w/v/v)","10","mL/kg","2018-10-09","1"
"S-00001","EX","S-00001-154","137","ACT-709478","0","mg/kg","SOLUTION","QD","ORAL GAVAGE","","Methylcellulose 0.5% / polyoxyethylene sorbitan monooleate (Tween 80) 0.5% / water (w/v/v)","10","mL/kg","2018-10-10","2"
"S-00001","EX","S-00001-154","138","ACT-709478","0","mg/kg","SOLUTION","QD","ORAL GAVAGE","","Methylcellulose 0.5% / polyoxyethylene sorbitan monooleate (Tween 80) 0.5% / water (w/v/v)","10","mL/kg","2018-10-11","3"
"S-00001","EX","S-00001-154","139","ACT-709478","0","mg/kg","SOLUTION","QD","ORAL GAVAGE","","Methylcellulose 0.5% / polyoxyethylene sorbitan monooleate (Tween 80) 0.5% / water (w/v/v)","10","mL/kg","2018-10-12","4"
"S-00001","EX","S-00001-154","140","ACT-709478","0","mg/kg","SOLUTION","QD","ORAL GAVAGE","","Methylcellulose 0.5% / polyoxyethylene sorbitan monooleate (Tween 80) 0.5% / water (w/v/v)","10","mL/kg","2018-10-13","5"
"S-00001","EX","S-00001-154","141","ACT-709478","0","mg/kg","SOLUTION","QD","ORAL GAVAGE","","Methylcellulose 0.5% / polyoxyethylene sorbitan monooleate (Tween 80) 0.5% / water (w/v/v)","10","mL/kg","2018-10-14","6"
"S-00001","EX","S-00001-154","142","ACT-709478","0","mg/kg","SOLUTION","QD","ORAL GAVAGE","","Methylcellulose 0.5% / polyoxyethylene sorbitan monooleate (Tween 80) 0.5% / water (w/v/v)","10","mL/kg","2018-10-15","7"
"S-00001","EX","S-00001-154","143","ACT-709478","0","mg/kg","SOLUTION","QD","ORAL GAVAGE","","Methylcellulose 0.5% / polyoxyethylene sorbitan monooleate (Tween 80) 0.5% / water (w/v/v)","10","mL/kg","2018-10-16","8"
"S-00001","EX","S-00001-154","144","ACT-709478","0","mg/kg","SOLUTION","QD","ORAL GAVAGE","","Methylcellulose 0.5% / polyoxyethylene sorbitan monooleate (Tween 80) 0.5% / water (w/v/v)","10","mL/kg","2018-10-17","9"
"S-00001","EX","S-00001-154","145","ACT-709478","0","mg/kg","SOLUTION","QD","ORAL GAVAGE","","Methylcellulose 0.5% / polyoxyethylene sorbitan monooleate (Tween 80) 0.5% / water (w/v/v)","10","mL/kg","2018-10-18","10"
"S-00001","EX","S-00001-154","146","ACT-709478","0","mg/kg","SOLUTION","QD","ORAL GAVAGE","","Methylcellulose 0.5% / polyoxyethylene sorbitan monooleate (Tween 80) 0.5% / water (w/v/v)","10","mL/kg","2018-10-19","11"
"S-00001","EX","S-00001-154","147","ACT-709478","0","mg/kg","SOLUTION","QD","ORAL GAVAGE","","Methylcellulose 0.5% / polyoxyethylene sorbitan monooleate (Tween 80) 0.5% / water (w/v/v)","10","mL/kg","2018-10-20","12"
"S-00001","EX","S-00001-154","148","ACT-709478","0","mg/kg","SOLUTION","QD","ORAL GAVAGE","","Methylcellulose 0.5% / polyoxyethylene sorbitan monooleate (Tween 80) 0.5% / water (w/v/v)","10","mL/kg","2018-10-21","13"
"S-00001","EX","S-00001-154","149","ACT-709478","0","mg/kg","SOLUTION","QD","ORAL GAVAGE","","Methylcellulose 0.5% / polyoxyethylene sorbitan monooleate (Tween 80) 0.5% / water (w/v/v)","10","mL/kg","2018-10-22","14"
"S-00001","EX","S-00001-154","150","ACT-709478","0","mg/kg","SOLUTION","QD","ORAL GAVAGE","","Methylcellulose 0.5% / polyoxyethylene sorbitan monooleate (Tween 80) 0.5% / water (w/v/v)","10","mL/kg","2018-10-23","15"
"S-00001","EX","S-00001-154","151","ACT-709478","0","mg/kg","SOLUTION","QD","ORAL GAVAGE","","Methylcellulose 0.5% / polyoxyethylene sorbitan monooleate (Tween 80) 0.5% / water (w/v/v)","10","mL/kg","2018-10-24","16"
"S-00001","EX","S-00001-154","152","ACT-709478","0","mg/kg","SOLUTION","QD","ORAL GAVAGE","","Methylcellulose 0.5% / polyoxyethylene sorbitan monooleate (Tween 80) 0.5% / water (w/v/v)","10","mL/kg","2018-10-25","17"
"S-00001","EX","S-00001-154","153","ACT-709478","0","mg/kg","SOLUTION","QD","ORAL GAVAGE","","Methylcellulose 0.5% / polyoxyethylene sorbitan monooleate (Tween 80) 0.5% / water (w/v/v)","10","mL/kg","2018-10-26","18"
"S-00001","EX","S-00001-154","154","ACT-709478","0","mg/kg","SOLUTION","QD","ORAL GAVAGE","","Methylcellulose 0.5% / polyoxyethylene sorbitan monooleate (Tween 80) 0.5% / water (w/v/v)","10","mL/kg","2018-10-27","19"
"S-00001","EX","S-00001-154","155","ACT-709478","0","mg/kg","SOLUTION","QD","ORAL GAVAGE","","Methylcellulose 0.5% / polyoxyethylene sorbitan monooleate (Tween 80) 0.5% / water (w/v/v)","10","mL/kg","2018-10-28","20"
"S-00001","EX","S-00001-154","156","ACT-709478","0","mg/kg","SOLUTION","QD","ORAL GAVAGE","","Methylcellulose 0.5% / polyoxyethylene sorbitan monooleate (Tween 80) 0.5% / water (w/v/v)","10","mL/kg","2018-10-29","21"
"S-00001","EX","S-00001-154","157","ACT-709478","0","mg/kg","SOLUTION","QD","ORAL GAVAGE","","Methylcellulose 0.5% / polyoxyethylene sorbitan monooleate (Tween 80) 0.5% / water (w/v/v)","10","mL/kg","2018-10-30","22"
"S-00001","EX","S-00001-154","158","ACT-709478","0","mg/kg","SOLUTION","QD","ORAL GAVAGE","","Methylcellulose 0.5% / polyoxyethylene sorbitan monooleate (Tween 80) 0.5% / water (w/v/v)","10","mL/kg","2018-10-31","23"
"S-00001","EX","S-00001-154","159","ACT-709478","0","mg/kg","SOLUTION","QD","ORAL GAVAGE","","Methylcellulose 0.5% / polyoxyethylene sorbitan monooleate (Tween 80) 0.5% / water (w/v/v)","10","mL/kg","2018-11-01","24"
"S-00001","EX","S-00001-154","160","ACT-709478","0","mg/kg","SOLUTION","QD","ORAL GAVAGE","","Methylcellulose 0.5% / polyoxyethylene sorbitan monooleate (Tween 80) 0.5% / water (w/v/v)","10","mL/kg","2018-11-02","25"
"S-00001","EX","S-00001-154","161","ACT-709478","0","mg/kg","SOLUTION","QD","ORAL GAVAGE","","Methylcellulose 0.5% / polyoxyethylene sorbitan monooleate (Tween 80) 0.5% / water (w/v/v)","10","mL/kg","2018-11-03","26"
"S-00001","EX","S-00001-154","162","ACT-709478","0","mg/kg","SOLUTION","QD","ORAL GAVAGE","","Methylcellulose 0.5% / polyoxyethylene sorbitan monooleate (Tween 80) 0.5% / water (w/v/v)","10","mL/kg","2018-11-04","27"
"S-00001","EX","S-00001-154","163","ACT-709478","0","mg/kg","SOLUTION","QD","ORAL GAVAGE","","Methylcellulose 0.5% / polyoxyethylene sorbitan monooleate (Tween 80) 0.5% / water (w/v/v)","10","mL/kg","2018-11-05","28"
"S-00001","EX","S-00001-154","164","ACT-709478","0","mg/kg","SOLUTION","QD","ORAL GAVAGE","","Methylcellulose 0.5% / polyoxyethylene sorbitan monooleate (Tween 80) 0.5% / water (w/v/v)","10","mL/kg","2018-11-06","29"
"S-00001","EX","S-00001-154","165","ACT-709478","0","mg/kg","SOLUTION","QD","ORAL GAVAGE","","Methylcellulose 0.5% / polyoxyethylene sorbitan monooleate (Tween 80) 0.5% / water (w/v/v)","10","mL/kg","2018-11-07","30"
"S-00001","EX","S-00001-154","166","ACT-709478","0","mg/kg","SOLUTION","QD","ORAL GAVAGE","","Methylcellulose 0.5% / polyoxyethylene sorbitan monooleate (Tween 80) 0.5% / water (w/v/v)","10","mL/kg","2018-11-08","31"
"S-00001","EX","S-00001-154","167","ACT-709478","0","mg/kg","SOLUTION","QD","ORAL GAVAGE","","Methylcellulose 0.5% / polyoxyethylene sorbitan monooleate (Tween 80) 0.5% / water (w/v/v)","10","mL/kg","2018-11-09","32"
"S-00001","EX","S-00001-154","168","ACT-709478","0","mg/kg","SOLUTION","QD","ORAL GAVAGE","","Methylcellulose 0.5% / polyoxyethylene sorbitan monooleate (Tween 80) 0.5% / water (w/v/v)","10","mL/kg","2018-11-10","33"
"S-00001","EX","S-00001-154","169","ACT-709478","0","mg/kg","SOLUTION","QD","ORAL GAVAGE","","Methylcellulose 0.5% / polyoxyethylene sorbitan monooleate (Tween 80) 0.5% / water (w/v/v)","10","mL/kg","2018-11-11","34"
"S-00001","EX","S-00001-154","170","ACT-709478","0","mg/kg","SOLUTION","QD","ORAL GAVAGE","","Methylcellulose 0.5% / polyoxyethylene sorbitan monooleate (Tween 80) 0.5% / water (w/v/v)","10","mL/kg","2018-11-12","35"
"S-00001","EX","S-00001-154","171","ACT-709478","0","mg/kg","SOLUTION","QD","ORAL GAVAGE","","Methylcellulose 0.5% / polyoxyethylene sorbitan monooleate (Tween 80) 0.5% / water (w/v/v)","10","mL/kg","2018-11-13","36"
"S-00001","EX","S-00001-154","172","ACT-709478","0","mg/kg","SOLUTION","QD","ORAL GAVAGE","","Methylcellulose 0.5% / polyoxyethylene sorbitan monooleate (Tween 80) 0.5% / water (w/v/v)","10","mL/kg","2018-11-14","37"
"S-00001","EX","S-00001-154","173","ACT-709478","0","mg/kg","SOLUTION","QD","ORAL GAVAGE","","Methylcellulose 0.5% / polyoxyethylene sorbitan monooleate (Tween 80) 0.5% / water (w/v/v)","10","mL/kg","2018-11-15","38"
"S-00001","EX","S-00001-154","174","ACT-709478","0","mg/kg","SOLUTION","QD","ORAL GAVAGE","","Methylcellulose 0.5% / polyoxyethylene sorbitan monooleate (Tween 80) 0.5% / water (w/v/v)","10","mL/kg","2018-11-16","39"
"S-00001","EX","S-00001-154","175","ACT-709478","0","mg/kg","SOLUTION","QD","ORAL GAVAGE","","Methylcellulose 0.5% / polyoxyethylene sorbitan monooleate (Tween 80) 0.5% / water (w/v/v)","10","mL/kg","2018-11-17","40"
"S-00001","EX","S-00001-154","176","ACT-709478","0","mg/kg","SOLUTION","QD","ORAL GAVAGE","","Methylcellulose 0.5% / polyoxyethylene sorbitan monooleate (Tween 80) 0.5% / water (w/v/v)","10","mL/kg","2018-11-18","41"
"S-00001","EX","S-00001-154","177","ACT-709478","0","mg/kg","SOLUTION","QD","ORAL GAVAGE","","Methylcellulose 0.5% / polyoxyethylene sorbitan monooleate (Tween 80) 0.5% / water (w/v/v)","10","mL/kg","2018-11-19","42"
"S-00001","EX","S-00001-154","178","ACT-709478","0","mg/kg","SOLUTION","QD","ORAL GAVAGE","","Methylcellulose 0.5% / polyoxyethylene sorbitan monooleate (Tween 80) 0.5% / water (w/v/v)","10","mL/kg","2018-11-20","43"
"S-00001","EX","S-00001-154","179","ACT-709478","0","mg/kg","SOLUTION","QD","ORAL GAVAGE","","Methylcellulose 0.5% / polyoxyethylene sorbitan monooleate (Tween 80) 0.5% / water (w/v/v)","10","mL/kg","2018-11-21","44"
"S-00001","EX","S-00001-154","180","ACT-709478","0","mg/kg","SOLUTION","QD","ORAL GAVAGE","","Methylcellulose 0.5% / polyoxyethylene sorbitan monooleate (Tween 80) 0.5% / water (w/v/v)","10","mL/kg","2018-11-22","45"
"S-00001","EX","S-00001-155","181","ACT-709478","0","mg/kg","SOLUTION","QD","ORAL GAVAGE","","Methylcellulose 0.5% / polyoxyethylene sorbitan monooleate (Tween 80) 0.5% / water (w/v/v)","10","mL/kg","2018-10-09","1"
"S-00001","EX","S-00001-155","182","ACT-709478","0","mg/kg","SOLUTION","QD","ORAL GAVAGE","","Methylcellulose 0.5% / polyoxyethylene sorbitan monooleate (Tween 80) 0.5% / water (w/v/v)","10","mL/kg","2018-10-10","2"
"S-00001","EX","S-00001-155","183","ACT-709478","0","mg/kg","SOLUTION","QD","ORAL GAVAGE","","Methylcellulose 0.5% / polyoxyethylene sorbitan monooleate (Tween 80) 0.5% / water (w/v/v)","10","mL/kg","2018-10-11","3"
"S-00001","EX","S-00001-155","184","ACT-709478","0","mg/kg","SOLUTION","QD","ORAL GAVAGE","","Methylcellulose 0.5% / polyoxyethylene sorbitan monooleate (Tween 80) 0.5% / water (w/v/v)","10","mL/kg","2018-10-12","4"
"S-00001","EX","S-00001-155","185","ACT-709478","0","mg/kg","SOLUTION","QD","ORAL GAVAGE","","Methylcellulose 0.5% / polyoxyethylene sorbitan monooleate (Tween 80) 0.5% / water (w/v/v)","10","mL/kg","2018-10-13","5"
"S-00001","EX","S-00001-155","186","ACT-709478","0","mg/kg","SOLUTION","QD","ORAL GAVAGE","","Methylcellulose 0.5% / polyoxyethylene sorbitan monooleate (Tween 80) 0.5% / water (w/v/v)","10","mL/kg","2018-10-14","6"
"S-00001","EX","S-00001-155","187","ACT-709478","0","mg/kg","SOLUTION","QD","ORAL GAVAGE","","Methylcellulose 0.5% / polyoxyethylene sorbitan monooleate (Tween 80) 0.5% / water (w/v/v)","10","mL/kg","2018-10-15","7"
"S-00001","EX","S-00001-155","188","ACT-709478","0","mg/kg","SOLUTION","QD","ORAL GAVAGE","","Methylcellulose 0.5% / polyoxyethylene sorbitan monooleate (Tween 80) 0.5% / water (w/v/v)","10","mL/kg","2018-10-16","8"
"S-00001","EX","S-00001-155","189","ACT-709478","0","mg/kg","SOLUTION","QD","ORAL GAVAGE","","Methylcellulose 0.5% / polyoxyethylene sorbitan monooleate (Tween 80) 0.5% / water (w/v/v)","10","mL/kg","2018-10-17","9"
"S-00001","EX","S-00001-155","190","ACT-709478","0","mg/kg","SOLUTION","QD","ORAL GAVAGE","","Methylcellulose 0.5% / polyoxyethylene sorbitan monooleate (Tween 80) 0.5% / water (w/v/v)","10","mL/kg","2018-10-18","10"
"S-00001","EX","S-00001-155","191","ACT-709478","0","mg/kg","SOLUTION","QD","ORAL GAVAGE","","Methylcellulose 0.5% / polyoxyethylene sorbitan monooleate (Tween 80) 0.5% / water (w/v/v)","10","mL/kg","2018-10-19","11"
"S-00001","EX","S-00001-155","192","ACT-709478","0","mg/kg","SOLUTION","QD","ORAL GAVAGE","","Methylcellulose 0.5% / polyoxyethylene sorbitan monooleate (Tween 80) 0.5% / water (w/v/v)","10","mL/kg","2018-10-20","12"
"S-00001","EX","S-00001-155","193","ACT-709478","0","mg/kg","SOLUTION","QD","ORAL GAVAGE","","Methylcellulose 0.5% / polyoxyethylene sorbitan monooleate (Tween 80) 0.5% / water (w/v/v)","10","mL/kg","2018-10-21","13"
"S-00001","EX","S-00001-155","194","ACT-709478","0","mg/kg","SOLUTION","QD","ORAL GAVAGE","","Methylcellulose 0.5% / polyoxyethylene sorbitan monooleate (Tween 80) 0.5% / water (w/v/v)","10","mL/kg","2018-10-22","14"
"S-00001","EX","S-00001-155","195","ACT-709478","0","mg/kg","SOLUTION","QD","ORAL GAVAGE","","Methylcellulose 0.5% / polyoxyethylene sorbitan monooleate (Tween 80) 0.5% / water (w/v/v)","10","mL/kg","2018-10-23","15"
"S-00001","EX","S-00001-155","196","ACT-709478","0","mg/kg","SOLUTION","QD","ORAL GAVAGE","","Methylcellulose 0.5% / polyoxyethylene sorbitan monooleate (Tween 80) 0.5% / water (w/v/v)","10","mL/kg","2018-10-24","16"
"S-00001","EX","S-00001-155","197","ACT-709478","0","mg/kg","SOLUTION","QD","ORAL GAVAGE","","Methylcellulose 0.5% / polyoxyethylene sorbitan monooleate (Tween 80) 0.5% / water (w/v/v)","10","mL/kg","2018-10-25","17"
"S-00001","EX","S-00001-155","198","ACT-709478","0","mg/kg","SOLUTION","QD","ORAL GAVAGE","","Methylcellulose 0.5% / polyoxyethylene sorbitan monooleate (Tween 80) 0.5% / water (w/v/v)","10","mL/kg","2018-10-26","18"
"S-00001","EX","S-00001-155","199","ACT-709478","0","mg/kg","SOLUTION","QD","ORAL GAVAGE","","Methylcellulose 0.5% / polyoxyethylene sorbitan monooleate (Tween 80) 0.5% / water (w/v/v)","10","mL/kg","2018-10-27","19"
"S-00001","EX","S-00001-155","200","ACT-709478","0","mg/kg","SOLUTION","QD","ORAL GAVAGE","","Methylcellulose 0.5% / polyoxyethylene sorbitan monooleate (Tween 80) 0.5% / water (w/v/v)","10","mL/kg","2018-10-28","20"
"S-00001","EX","S-00001-155","201","ACT-709478","0","mg/kg","SOLUTION","QD","ORAL GAVAGE","","Methylcellulose 0.5% / polyoxyethylene sorbitan monooleate (Tween 80) 0.5% / water (w/v/v)","10","mL/kg","2018-10-29","21"
"S-00001","EX","S-00001-155","202","ACT-709478","0","mg/kg","SOLUTION","QD","ORAL GAVAGE","","Methylcellulose 0.5% / polyoxyethylene sorbitan monooleate (Tween 80) 0.5% / water (w/v/v)","10","mL/kg","2018-10-30","22"
"S-00001","EX","S-00001-155","203","ACT-709478","0","mg/kg","SOLUTION","QD","ORAL GAVAGE","","Methylcellulose 0.5% / polyoxyethylene sorbitan monooleate (Tween 80) 0.5% / water (w/v/v)","10","mL/kg","2018-10-31","23"
"S-00001","EX","S-00001-155","204","ACT-709478","0","mg/kg","SOLUTION","QD","ORAL GAVAGE","","Methylcellulose 0.5% / polyoxyethylene sorbitan monooleate (Tween 80) 0.5% / water (w/v/v)","10","mL/kg","2018-11-01","24"
"S-00001","EX","S-00001-155","205","ACT-709478","0","mg/kg","SOLUTION","QD","ORAL GAVAGE","","Methylcellulose 0.5% / polyoxyethylene sorbitan monooleate (Tween 80) 0.5% / water (w/v/v)","10","mL/kg","2018-11-02","25"
"S-00001","EX","S-00001-155","206","ACT-709478","0","mg/kg","SOLUTION","QD","ORAL GAVAGE","","Methylcellulose 0.5% / polyoxyethylene sorbitan monooleate (Tween 80) 0.5% / water (w/v/v)","10","mL/kg","2018-11-03","26"
"S-00001","EX","S-00001-155","207","ACT-709478","0","mg/kg","SOLUTION","QD","ORAL GAVAGE","","Methylcellulose 0.5% / polyoxyethylene sorbitan monooleate (Tween 80) 0.5% / water (w/v/v)","10","mL/kg","2018-11-04","27"
"S-00001","EX","S-00001-155","208","ACT-709478","0","mg/kg","SOLUTION","QD","ORAL GAVAGE","","Methylcellulose 0.5% / polyoxyethylene sorbitan monooleate (Tween 80) 0.5% / water (w/v/v)","10","mL/kg","2018-11-05","28"
"S-00001","EX","S-00001-155","209","ACT-709478","0","mg/kg","SOLUTION","QD","ORAL GAVAGE","","Methylcellulose 0.5% / polyoxyethylene sorbitan monooleate (Tween 80) 0.5% / water (w/v/v)","10","mL/kg","2018-11-06","29"
"S-00001","EX","S-00001-155","210","ACT-709478","0","mg/kg","SOLUTION","QD","ORAL GAVAGE","","Methylcellulose 0.5% / polyoxyethylene sorbitan monooleate (Tween 80) 0.5% / water (w/v/v)","10","mL/kg","2018-11-07","30"
"S-00001","EX","S-00001-155","211","ACT-709478","0","mg/kg","SOLUTION","QD","ORAL GAVAGE","","Methylcellulose 0.5% / polyoxyethylene sorbitan monooleate (Tween 80) 0.5% / water (w/v/v)","10","mL/kg","2018-11-08","31"
"S-00001","EX","S-00001-155","212","ACT-709478","0","mg/kg","SOLUTION","QD","ORAL GAVAGE","","Methylcellulose 0.5% / polyoxyethylene sorbitan monooleate (Tween 80) 0.5% / water (w/v/v)","10","mL/kg","2018-11-09","32"
"S-00001","EX","S-00001-155","213","ACT-709478","0","mg/kg","SOLUTION","QD","ORAL GAVAGE","","Methylcellulose 0.5% / polyoxyethylene sorbitan monooleate (Tween 80) 0.5% / water (w/v/v)","10","mL/kg","2018-11-10","33"
"S-00001","EX","S-00001-155","214","ACT-709478","0","mg/kg","SOLUTION","QD","ORAL GAVAGE","","Methylcellulose 0.5% / polyoxyethylene sorbitan monooleate (Tween 80) 0.5% / water (w/v/v)","10","mL/kg","2018-11-11","34"
"S-00001","EX","S-00001-155","215","ACT-709478","0","mg/kg","SOLUTION","QD","ORAL GAVAGE","","Methylcellulose 0.5% / polyoxyethylene sorbitan monooleate (Tween 80) 0.5% / water (w/v/v)","10","mL/kg","2018-11-12","35"
"S-00001","EX","S-00001-155","216","ACT-709478","0","mg/kg","SOLUTION","QD","ORAL GAVAGE","","Methylcellulose 0.5% / polyoxyethylene sorbitan monooleate (Tween 80) 0.5% / water (w/v/v)","10","mL/kg","2018-11-13","36"
"S-00001","EX","S-00001-155","217","ACT-709478","0","mg/kg","SOLUTION","QD","ORAL GAVAGE","","Methylcellulose 0.5% / polyoxyethylene sorbitan monooleate (Tween 80) 0.5% / water (w/v/v)","10","mL/kg","2018-11-14","37"
"S-00001","EX","S-00001-155","218","ACT-709478","0","mg/kg","SOLUTION","QD","ORAL GAVAGE","","Methylcellulose 0.5% / polyoxyethylene sorbitan monooleate (Tween 80) 0.5% / water (w/v/v)","10","mL/kg","2018-11-15","38"
"S-00001","EX","S-00001-155","219","ACT-709478","0","mg/kg","SOLUTION","QD","ORAL GAVAGE","","Methylcellulose 0.5% / polyoxyethylene sorbitan monooleate (Tween 80) 0.5% / water (w/v/v)","10","mL/kg","2018-11-16","39"
"S-00001","EX","S-00001-155","220","ACT-709478","0","mg/kg","SOLUTION","QD","ORAL GAVAGE","","Methylcellulose 0.5% / polyoxyethylene sorbitan monooleate (Tween 80) 0.5% / water (w/v/v)","10","mL/kg","2018-11-17","40"
"S-00001","EX","S-00001-155","221","ACT-709478","0","mg/kg","SOLUTION","QD","ORAL GAVAGE","","Methylcellulose 0.5% / polyoxyethylene sorbitan monooleate (Tween 80) 0.5% / water (w/v/v)","10","mL/kg","2018-11-18","41"
"S-00001","EX","S-00001-155","222","ACT-709478","0","mg/kg","SOLUTION","QD","ORAL GAVAGE","","Methylcellulose 0.5% / polyoxyethylene sorbitan monooleate (Tween 80) 0.5% / water (w/v/v)","10","mL/kg","2018-11-19","42"
"S-00001","EX","S-00001-155","223","ACT-709478","0","mg/kg","SOLUTION","QD","ORAL GAVAGE","","Methylcellulose 0.5% / polyoxyethylene sorbitan monooleate (Tween 80) 0.5% / water (w/v/v)","10","mL/kg","2018-11-20","43"
"S-00001","EX","S-00001-155","224","ACT-709478","0","mg/kg","SOLUTION","QD","ORAL GAVAGE","","Methylcellulose 0.5% / polyoxyethylene sorbitan monooleate (Tween 80) 0.5% / water (w/v/v)","10","mL/kg","2018-11-21","44"
"S-00001","EX","S-00001-155","225","ACT-709478","0","mg/kg","SOLUTION","QD","ORAL GAVAGE","","Methylcellulose 0.5% / polyoxyethylene sorbitan monooleate (Tween 80) 0.5% / water (w/v/v)","10","mL/kg","2018-11-22","45"
"S-00001","EX","S-00001-156","226","ACT-709478","0","mg/kg","SOLUTION","QD","ORAL GAVAGE","","Methylcellulose 0.5% / polyoxyethylene sorbitan monooleate (Tween 80) 0.5% / water (w/v/v)","10","mL/kg","2018-10-09","1"
"S-00001","EX","S-00001-156","227","ACT-709478","0","mg/kg","SOLUTION","QD","ORAL GAVAGE","","Methylcellulose 0.5% / polyoxyethylene sorbitan monooleate (Tween 80) 0.5% / water (w/v/v)","10","mL/kg","2018-10-10","2"
"S-00001","EX","S-00001-156","228","ACT-709478","0","mg/kg","SOLUTION","QD","ORAL GAVAGE","","Methylcellulose 0.5% / polyoxyethylene sorbitan monooleate (Tween 80) 0.5% / water (w/v/v)","10","mL/kg","2018-10-11","3"
"S-00001","EX","S-00001-156","229","ACT-709478","0","mg/kg","SOLUTION","QD","ORAL GAVAGE","","Methylcellulose 0.5% / polyoxyethylene sorbitan monooleate (Tween 80) 0.5% / water (w/v/v)","10","mL/kg","2018-10-12","4"
"S-00001","EX","S-00001-156","230","ACT-709478","0","mg/kg","SOLUTION","QD","ORAL GAVAGE","","Methylcellulose 0.5% / polyoxyethylene sorbitan monooleate (Tween 80) 0.5% / water (w/v/v)","10","mL/kg","2018-10-13","5"
"S-00001","EX","S-00001-156","231","ACT-709478","0","mg/kg","SOLUTION","QD","ORAL GAVAGE","","Methylcellulose 0.5% / polyoxyethylene sorbitan monooleate (Tween 80) 0.5% / water (w/v/v)","10","mL/kg","2018-10-14","6"
"S-00001","EX","S-00001-156","232","ACT-709478","0","mg/kg","SOLUTION","QD","ORAL GAVAGE","","Methylcellulose 0.5% / polyoxyethylene sorbitan monooleate (Tween 80) 0.5% / water (w/v/v)","10","mL/kg","2018-10-15","7"
"S-00001","EX","S-00001-156","233","ACT-709478","0","mg/kg","SOLUTION","QD","ORAL GAVAGE","","Methylcellulose 0.5% / polyoxyethylene sorbitan monooleate (Tween 80) 0.5% / water (w/v/v)","10","mL/kg","2018-10-16","8"
"S-00001","EX","S-00001-156","234","ACT-709478","0","mg/kg","SOLUTION","QD","ORAL GAVAGE","","Methylcellulose 0.5% / polyoxyethylene sorbitan monooleate (Tween 80) 0.5% / water (w/v/v)","10","mL/kg","2018-10-17","9"
"S-00001","EX","S-00001-156","235","ACT-709478","0","mg/kg","SOLUTION","QD","ORAL GAVAGE","","Methylcellulose 0.5% / polyoxyethylene sorbitan monooleate (Tween 80) 0.5% / water (w/v/v)","10","mL/kg","2018-10-18","10"
"S-00001","EX","S-00001-156","236","ACT-709478","0","mg/kg","SOLUTION","QD","ORAL GAVAGE","","Methylcellulose 0.5% / polyoxyethylene sorbitan monooleate (Tween 80) 0.5% / water (w/v/v)","10","mL/kg","2018-10-19","11"
"S-00001","EX","S-00001-156","237","ACT-709478","0","mg/kg","SOLUTION","QD","ORAL GAVAGE","","Methylcellulose 0.5% / polyoxyethylene sorbitan monooleate (Tween 80) 0.5% / water (w/v/v)","10","mL/kg","2018-10-20","12"
"S-00001","EX","S-00001-156","238","ACT-709478","0","mg/kg","SOLUTION","QD","ORAL GAVAGE","","Methylcellulose 0.5% / polyoxyethylene sorbitan monooleate (Tween 80) 0.5% / water (w/v/v)","10","mL/kg","2018-10-21","13"
"S-00001","EX","S-00001-156","239","ACT-709478","0","mg/kg","SOLUTION","QD","ORAL GAVAGE","","Methylcellulose 0.5% / polyoxyethylene sorbitan monooleate (Tween 80) 0.5% / water (w/v/v)","10","mL/kg","2018-10-22","14"
"S-00001","EX","S-00001-156","240","ACT-709478","0","mg/kg","SOLUTION","QD","ORAL GAVAGE","","Methylcellulose 0.5% / polyoxyethylene sorbitan monooleate (Tween 80) 0.5% / water (w/v/v)","10","mL/kg","2018-10-23","15"
"S-00001","EX","S-00001-156","241","ACT-709478","0","mg/kg","SOLUTION","QD","ORAL GAVAGE","","Methylcellulose 0.5% / polyoxyethylene sorbitan monooleate (Tween 80) 0.5% / water (w/v/v)","10","mL/kg","2018-10-24","16"
"S-00001","EX","S-00001-156","242","ACT-709478","0","mg/kg","SOLUTION","QD","ORAL GAVAGE","","Methylcellulose 0.5% / polyoxyethylene sorbitan monooleate (Tween 80) 0.5% / water (w/v/v)","10","mL/kg","2018-10-25","17"
"S-00001","EX","S-00001-156","243","ACT-709478","0","mg/kg","SOLUTION","QD","ORAL GAVAGE","","Methylcellulose 0.5% / polyoxyethylene sorbitan monooleate (Tween 80) 0.5% / water (w/v/v)","10","mL/kg","2018-10-26","18"
"S-00001","EX","S-00001-156","244","ACT-709478","0","mg/kg","SOLUTION","QD","ORAL GAVAGE","","Methylcellulose 0.5% / polyoxyethylene sorbitan monooleate (Tween 80) 0.5% / water (w/v/v)","10","mL/kg","2018-10-27","19"
"S-00001","EX","S-00001-156","245","ACT-709478","0","mg/kg","SOLUTION","QD","ORAL GAVAGE","","Methylcellulose 0.5% / polyoxyethylene sorbitan monooleate (Tween 80) 0.5% / water (w/v/v)","10","mL/kg","2018-10-28","20"
"S-00001","EX","S-00001-156","246","ACT-709478","0","mg/kg","SOLUTION","QD","ORAL GAVAGE","","Methylcellulose 0.5% / polyoxyethylene sorbitan monooleate (Tween 80) 0.5% / water (w/v/v)","10","mL/kg","2018-10-29","21"
"S-00001","EX","S-00001-156","247","ACT-709478","0","mg/kg","SOLUTION","QD","ORAL GAVAGE","","Methylcellulose 0.5% / polyoxyethylene sorbitan monooleate (Tween 80) 0.5% / water (w/v/v)","10","mL/kg","2018-10-30","22"
"S-00001","EX","S-00001-156","248","ACT-709478","0","mg/kg","SOLUTION","QD","ORAL GAVAGE","","Methylcellulose 0.5% / polyoxyethylene sorbitan monooleate (Tween 80) 0.5% / water (w/v/v)","10","mL/kg","2018-10-31","23"
"S-00001","EX","S-00001-156","249","ACT-709478","0","mg/kg","SOLUTION","QD","ORAL GAVAGE","","Methylcellulose 0.5% / polyoxyethylene sorbitan monooleate (Tween 80) 0.5% / water (w/v/v)","10","mL/kg","2018-11-01","24"
"S-00001","EX","S-00001-156","250","ACT-709478","0","mg/kg","SOLUTION","QD","ORAL GAVAGE","","Methylcellulose 0.5% / polyoxyethylene sorbitan monooleate (Tween 80) 0.5% / water (w/v/v)","10","mL/kg","2018-11-02","25"
"S-00001","EX","S-00001-156","251","ACT-709478","0","mg/kg","SOLUTION","QD","ORAL GAVAGE","","Methylcellulose 0.5% / polyoxyethylene sorbitan monooleate (Tween 80) 0.5% / water (w/v/v)","10","mL/kg","2018-11-03","26"
"S-00001","EX","S-00001-156","252","ACT-709478","0","mg/kg","SOLUTION","QD","ORAL GAVAGE","","Methylcellulose 0.5% / polyoxyethylene sorbitan monooleate (Tween 80) 0.5% / water (w/v/v)","10","mL/kg","2018-11-04","27"
"S-00001","EX","S-00001-156","253","ACT-709478","0","mg/kg","SOLUTION","QD","ORAL GAVAGE","","Methylcellulose 0.5% / polyoxyethylene sorbitan monooleate (Tween 80) 0.5% / water (w/v/v)","10","mL/kg","2018-11-05","28"
"S-00001","EX","S-00001-156","254","ACT-709478","0","mg/kg","SOLUTION","QD","ORAL GAVAGE","","Methylcellulose 0.5% / polyoxyethylene sorbitan monooleate (Tween 80) 0.5% / water (w/v/v)","10","mL/kg","2018-11-06","29"
"S-00001","EX","S-00001-156","255","ACT-709478","0","mg/kg","SOLUTION","QD","ORAL GAVAGE","","Methylcellulose 0.5% / polyoxyethylene sorbitan monooleate (Tween 80) 0.5% / water (w/v/v)","10","mL/kg","2018-11-07","30"
"S-00001","EX","S-00001-156","256","ACT-709478","0","mg/kg","SOLUTION","QD","ORAL GAVAGE","","Methylcellulose 0.5% / polyoxyethylene sorbitan monooleate (Tween 80) 0.5% / water (w/v/v)","10","mL/kg","2018-11-08","31"
"S-00001","EX","S-00001-156","257","ACT-709478","0","mg/kg","SOLUTION","QD","ORAL GAVAGE","","Methylcellulose 0.5% / polyoxyethylene sorbitan monooleate (Tween 80) 0.5% / water (w/v/v)","10","mL/kg","2018-11-09","32"
"S-00001","EX","S-00001-156","258","ACT-709478","0","mg/kg","SOLUTION","QD","ORAL GAVAGE","","Methylcellulose 0.5% / polyoxyethylene sorbitan monooleate (Tween 80) 0.5% / water (w/v/v)","10","mL/kg","2018-11-10","33"
"S-00001","EX","S-00001-156","259","ACT-709478","0","mg/kg","SOLUTION","QD","ORAL GAVAGE","","Methylcellulose 0.5% / polyoxyethylene sorbitan monooleate (Tween 80) 0.5% / water (w/v/v)","10","mL/kg","2018-11-11","34"
"S-00001","EX","S-00001-156","260","ACT-709478","0","mg/kg","SOLUTION","QD","ORAL GAVAGE","","Methylcellulose 0.5% / polyoxyethylene sorbitan monooleate (Tween 80) 0.5% / water (w/v/v)","10","mL/kg","2018-11-12","35"
"S-00001","EX","S-00001-156","261","ACT-709478","0","mg/kg","SOLUTION","QD","ORAL GAVAGE","","Methylcellulose 0.5% / polyoxyethylene sorbitan monooleate (Tween 80) 0.5% / water (w/v/v)","10","mL/kg","2018-11-13","36"
"S-00001","EX","S-00001-156","262","ACT-709478","0","mg/kg","SOLUTION","QD","ORAL GAVAGE","","Methylcellulose 0.5% / polyoxyethylene sorbitan monooleate (Tween 80) 0.5% / water (w/v/v)","10","mL/kg","2018-11-14","37"
"S-00001","EX","S-00001-156","263","ACT-709478","0","mg/kg","SOLUTION","QD","ORAL GAVAGE","","Methylcellulose 0.5% / polyoxyethylene sorbitan monooleate (Tween 80) 0.5% / water (w/v/v)","10","mL/kg","2018-11-15","38"
"S-00001","EX","S-00001-156","264","ACT-709478","0","mg/kg","SOLUTION","QD","ORAL GAVAGE","","Methylcellulose 0.5% / polyoxyethylene sorbitan monooleate (Tween 80) 0.5% / water (w/v/v)","10","mL/kg","2018-11-16","39"
"S-00001","EX","S-00001-156","265","ACT-709478","0","mg/kg","SOLUTION","QD","ORAL GAVAGE","","Methylcellulose 0.5% / polyoxyethylene sorbitan monooleate (Tween 80) 0.5% / water (w/v/v)","10","mL/kg","2018-11-17","40"
"S-00001","EX","S-00001-156","266","ACT-709478","0","mg/kg","SOLUTION","QD","ORAL GAVAGE","","Methylcellulose 0.5% / polyoxyethylene sorbitan monooleate (Tween 80) 0.5% / water (w/v/v)","10","mL/kg","2018-11-18","41"
"S-00001","EX","S-00001-156","267","ACT-709478","0","mg/kg","SOLUTION","QD","ORAL GAVAGE","","Methylcellulose 0.5% / polyoxyethylene sorbitan monooleate (Tween 80) 0.5% / water (w/v/v)","10","mL/kg","2018-11-19","42"
"S-00001","EX","S-00001-156","268","ACT-709478","0","mg/kg","SOLUTION","QD","ORAL GAVAGE","","Methylcellulose 0.5% / polyoxyethylene sorbitan monooleate (Tween 80) 0.5% / water (w/v/v)","10","mL/kg","2018-11-20","43"
"S-00001","EX","S-00001-156","269","ACT-709478","0","mg/kg","SOLUTION","QD","ORAL GAVAGE","","Methylcellulose 0.5% / polyoxyethylene sorbitan monooleate (Tween 80) 0.5% / water (w/v/v)","10","mL/kg","2018-11-21","44"
"S-00001","EX","S-00001-156","270","ACT-709478","0","mg/kg","SOLUTION","QD","ORAL GAVAGE","","Methylcellulose 0.5% / polyoxyethylene sorbitan monooleate (Tween 80) 0.5% / water (w/v/v)","10","mL/kg","2018-11-22","45"
"S-00001","EX","S-00001-251","271","ACT-709478","250","mg/kg","SOLUTION","QD","ORAL GAVAGE","2939-AA/1","Methylcellulose 0.5% / polyoxyethylene sorbitan monooleate (Tween 80) 0.5% / water (w/v/v)","10","mL/kg","2018-10-09","1"
"S-00001","EX","S-00001-251","272","ACT-709478","250","mg/kg","SOLUTION","QD","ORAL GAVAGE","2939-AA/1","Methylcellulose 0.5% / polyoxyethylene sorbitan monooleate (Tween 80) 0.5% / water (w/v/v)","10","mL/kg","2018-10-10","2"
"S-00001","EX","S-00001-251","273","ACT-709478","250","mg/kg","SOLUTION","QD","ORAL GAVAGE","2939-AA/1","Methylcellulose 0.5% / polyoxyethylene sorbitan monooleate (Tween 80) 0.5% / water (w/v/v)","10","mL/kg","2018-10-11","3"
"S-00001","EX","S-00001-251","274","ACT-709478","250","mg/kg","SOLUTION","QD","ORAL GAVAGE","2939-AA/1","Methylcellulose 0.5% / polyoxyethylene sorbitan monooleate (Tween 80) 0.5% / water (w/v/v)","10","mL/kg","2018-10-12","4"
"S-00001","EX","S-00001-251","275","ACT-709478","250","mg/kg","SOLUTION","QD","ORAL GAVAGE","2939-AA/1","Methylcellulose 0.5% / polyoxyethylene sorbitan monooleate (Tween 80) 0.5% / water (w/v/v)","10","mL/kg","2018-10-13","5"
"S-00001","EX","S-00001-251","276","ACT-709478","250","mg/kg","SOLUTION","QD","ORAL GAVAGE","2939-AA/1","Methylcellulose 0.5% / polyoxyethylene sorbitan monooleate (Tween 80) 0.5% / water (w/v/v)","10","mL/kg","2018-10-14","6"
"S-00001","EX","S-00001-251","277","ACT-709478","250","mg/kg","SOLUTION","QD","ORAL GAVAGE","2939-AA/1","Methylcellulose 0.5% / polyoxyethylene sorbitan monooleate (Tween 80) 0.5% / water (w/v/v)","10","mL/kg","2018-10-15","7"
"S-00001","EX","S-00001-251","278","ACT-709478","250","mg/kg","SOLUTION","QD","ORAL GAVAGE","2939-AA/1","Methylcellulose 0.5% / polyoxyethylene sorbitan monooleate (Tween 80) 0.5% / water (w/v/v)","10","mL/kg","2018-10-16","8"
"S-00001","EX","S-00001-251","279","ACT-709478","250","mg/kg","SOLUTION","QD","ORAL GAVAGE","2939-AA/1","Methylcellulose 0.5% / polyoxyethylene sorbitan monooleate (Tween 80) 0.5% / water (w/v/v)","10","mL/kg","2018-10-17","9"
"S-00001","EX","S-00001-251","280","ACT-709478","250","mg/kg","SOLUTION","QD","ORAL GAVAGE","2939-AA/1","Methylcellulose 0.5% / polyoxyethylene sorbitan monooleate (Tween 80) 0.5% / water (w/v/v)","10","mL/kg","2018-10-18","10"
"S-00001","EX","S-00001-251","281","ACT-709478","250","mg/kg","SOLUTION","QD","ORAL GAVAGE","2939-AA/1","Methylcellulose 0.5% / polyoxyethylene sorbitan monooleate (Tween 80) 0.5% / water (w/v/v)","10","mL/kg","2018-10-19","11"
"S-00001","EX","S-00001-251","282","ACT-709478","250","mg/kg","SOLUTION","QD","ORAL GAVAGE","2939-AA/1","Methylcellulose 0.5% / polyoxyethylene sorbitan monooleate (Tween 80) 0.5% / water (w/v/v)","10","mL/kg","2018-10-20","12"
"S-00001","EX","S-00001-251","283","ACT-709478","250","mg/kg","SOLUTION","QD","ORAL GAVAGE","2939-AA/1","Methylcellulose 0.5% / polyoxyethylene sorbitan monooleate (Tween 80) 0.5% / water (w/v/v)","10","mL/kg","2018-10-21","13"
"S-00001","EX","S-00001-251","284","ACT-709478","250","mg/kg","SOLUTION","QD","ORAL GAVAGE","2939-AA/1","Methylcellulose 0.5% / polyoxyethylene sorbitan monooleate (Tween 80) 0.5% / water (w/v/v)","10","mL/kg","2018-10-22","14"
"S-00001","EX","S-00001-251","285","ACT-709478","250","mg/kg","SOLUTION","QD","ORAL GAVAGE","2939-AA/1","Methylcellulose 0.5% / polyoxyethylene sorbitan monooleate (Tween 80) 0.5% / water (w/v/v)","10","mL/kg","2018-10-23","15"
"S-00001","EX","S-00001-251","286","ACT-709478","250","mg/kg","SOLUTION","QD","ORAL GAVAGE","2939-AA/1","Methylcellulose 0.5% / polyoxyethylene sorbitan monooleate (Tween 80) 0.5% / water (w/v/v)","10","mL/kg","2018-10-24","16"
"S-00001","EX","S-00001-251","287","ACT-709478","250","mg/kg","SOLUTION","QD","ORAL GAVAGE","2939-AA/1","Methylcellulose 0.5% / polyoxyethylene sorbitan monooleate (Tween 80) 0.5% / water (w/v/v)","10","mL/kg","2018-10-25","17"
"S-00001","EX","S-00001-251","288","ACT-709478","250","mg/kg","SOLUTION","QD","ORAL GAVAGE","2939-AA/1","Methylcellulose 0.5% / polyoxyethylene sorbitan monooleate (Tween 80) 0.5% / water (w/v/v)","10","mL/kg","2018-10-26","18"
"S-00001","EX","S-00001-251","289","ACT-709478","250","mg/kg","SOLUTION","QD","ORAL GAVAGE","2939-AA/1","Methylcellulose 0.5% / polyoxyethylene sorbitan monooleate (Tween 80) 0.5% / water (w/v/v)","10","mL/kg","2018-10-27","19"
"S-00001","EX","S-00001-251","290","ACT-709478","250","mg/kg","SOLUTION","QD","ORAL GAVAGE","2939-AA/1","Methylcellulose 0.5% / polyoxyethylene sorbitan monooleate (Tween 80) 0.5% / water (w/v/v)","10","mL/kg","2018-10-28","20"
"S-00001","EX","S-00001-251","291","ACT-709478","250","mg/kg","SOLUTION","QD","ORAL GAVAGE","2939-AA/1","Methylcellulose 0.5% / polyoxyethylene sorbitan monooleate (Tween 80) 0.5% / water (w/v/v)","10","mL/kg","2018-10-29","21"
"S-00001","EX","S-00001-251","292","ACT-709478","250","mg/kg","SOLUTION","QD","ORAL GAVAGE","2939-AA/1","Methylcellulose 0.5% / polyoxyethylene sorbitan monooleate (Tween 80) 0.5% / water (w/v/v)","10","mL/kg","2018-10-30","22"
"S-00001","EX","S-00001-251","293","ACT-709478","250","mg/kg","SOLUTION","QD","ORAL GAVAGE","2939-AA/1","Methylcellulose 0.5% / polyoxyethylene sorbitan monooleate (Tween 80) 0.5% / water (w/v/v)","10","mL/kg","2018-10-31","23"
"S-00001","EX","S-00001-251","294","ACT-709478","250","mg/kg","SOLUTION","QD","ORAL GAVAGE","2939-AA/1","Methylcellulose 0.5% / polyoxyethylene sorbitan monooleate (Tween 80) 0.5% / water (w/v/v)","10","mL/kg","2018-11-01","24"
"S-00001","EX","S-00001-251","295","ACT-709478","250","mg/kg","SOLUTION","QD","ORAL GAVAGE","2939-AA/1","Methylcellulose 0.5% / polyoxyethylene sorbitan monooleate (Tween 80) 0.5% / water (w/v/v)","10","mL/kg","2018-11-02","25"
"S-00001","EX","S-00001-251","296","ACT-709478","250","mg/kg","SOLUTION","QD","ORAL GAVAGE","2939-AA/1","Methylcellulose 0.5% / polyoxyethylene sorbitan monooleate (Tween 80) 0.5% / water (w/v/v)","10","mL/kg","2018-11-03","26"
"S-00001","EX","S-00001-251","297","ACT-709478","250","mg/kg","SOLUTION","QD","ORAL GAVAGE","2939-AA/1","Methylcellulose 0.5% / polyoxyethylene sorbitan monooleate (Tween 80) 0.5% / water (w/v/v)","10","mL/kg","2018-11-04","27"
"S-00001","EX","S-00001-251","298","ACT-709478","250","mg/kg","SOLUTION","QD","ORAL GAVAGE","2939-AA/1","Methylcellulose 0.5% / polyoxyethylene sorbitan monooleate (Tween 80) 0.5% / water (w/v/v)","10","mL/kg","2018-11-05","28"
"S-00001","EX","S-00001-251","299","ACT-709478","250","mg/kg","SOLUTION","QD","ORAL GAVAGE","2939-AA/1","Methylcellulose 0.5% / polyoxyethylene sorbitan monooleate (Tween 80) 0.5% / water (w/v/v)","10","mL/kg","2018-11-06","29"
"S-00001","EX","S-00001-251","300","ACT-709478","250","mg/kg","SOLUTION","QD","ORAL GAVAGE","2939-AA/1","Methylcellulose 0.5% / polyoxyethylene sorbitan monooleate (Tween 80) 0.5% / water (w/v/v)","10","mL/kg","2018-11-07","30"
"S-00001","EX","S-00001-251","301","ACT-709478","250","mg/kg","SOLUTION","QD","ORAL GAVAGE","2939-AA/1","Methylcellulose 0.5% / polyoxyethylene sorbitan monooleate (Tween 80) 0.5% / water (w/v/v)","10","mL/kg","2018-11-08","31"
"S-00001","EX","S-00001-251","302","ACT-709478","250","mg/kg","SOLUTION","QD","ORAL GAVAGE","2939-AA/1","Methylcellulose 0.5% / polyoxyethylene sorbitan monooleate (Tween 80) 0.5% / water (w/v/v)","10","mL/kg","2018-11-09","32"
"S-00001","EX","S-00001-251","303","ACT-709478","250","mg/kg","SOLUTION","QD","ORAL GAVAGE","2939-AA/1","Methylcellulose 0.5% / polyoxyethylene sorbitan monooleate (Tween 80) 0.5% / water (w/v/v)","10","mL/kg","2018-11-10","33"
"S-00001","EX","S-00001-251","304","ACT-709478","250","mg/kg","SOLUTION","QD","ORAL GAVAGE","2939-AA/1","Methylcellulose 0.5% / polyoxyethylene sorbitan monooleate (Tween 80) 0.5% / water (w/v/v)","10","mL/kg","2018-11-11","34"
"S-00001","EX","S-00001-251","305","ACT-709478","250","mg/kg","SOLUTION","QD","ORAL GAVAGE","2939-AA/1","Methylcellulose 0.5% / polyoxyethylene sorbitan monooleate (Tween 80) 0.5% / water (w/v/v)","10","mL/kg","2018-11-12","35"
"S-00001","EX","S-00001-251","306","ACT-709478","250","mg/kg","SOLUTION","QD","ORAL GAVAGE","2939-AA/1","Methylcellulose 0.5% / polyoxyethylene sorbitan monooleate (Tween 80) 0.5% / water (w/v/v)","10","mL/kg","2018-11-13","36"
"S-00001","EX","S-00001-251","307","ACT-709478","250","mg/kg","SOLUTION","QD","ORAL GAVAGE","2939-AA/1","Methylcellulose 0.5% / polyoxyethylene sorbitan monooleate (Tween 80) 0.5% / water (w/v/v)","10","mL/kg","2018-11-14","37"
"S-00001","EX","S-00001-251","308","ACT-709478","250","mg/kg","SOLUTION","QD","ORAL GAVAGE","2939-AA/1","Methylcellulose 0.5% / polyoxyethylene sorbitan monooleate (Tween 80) 0.5% / water (w/v/v)","10","mL/kg","2018-11-15","38"
"S-00001","EX","S-00001-251","309","ACT-709478","250","mg/kg","SOLUTION","QD","ORAL GAVAGE","2939-AA/1","Methylcellulose 0.5% / polyoxyethylene sorbitan monooleate (Tween 80) 0.5% / water (w/v/v)","10","mL/kg","2018-11-16","39"
"S-00001","EX","S-00001-251","310","ACT-709478","250","mg/kg","SOLUTION","QD","ORAL GAVAGE","2939-AA/1","Methylcellulose 0.5% / polyoxyethylene sorbitan monooleate (Tween 80) 0.5% / water (w/v/v)","10","mL/kg","2018-11-17","40"
"S-00001","EX","S-00001-251","311","ACT-709478","250","mg/kg","SOLUTION","QD","ORAL GAVAGE","2939-AA/1","Methylcellulose 0.5% / polyoxyethylene sorbitan monooleate (Tween 80) 0.5% / water (w/v/v)","10","mL/kg","2018-11-18","41"
"S-00001","EX","S-00001-251","312","ACT-709478","250","mg/kg","SOLUTION","QD","ORAL GAVAGE","2939-AA/1","Methylcellulose 0.5% / polyoxyethylene sorbitan monooleate (Tween 80) 0.5% / water (w/v/v)","10","mL/kg","2018-11-19","42"
"S-00001","EX","S-00001-251","313","ACT-709478","250","mg/kg","SOLUTION","QD","ORAL GAVAGE","2939-AA/1","Methylcellulose 0.5% / polyoxyethylene sorbitan monooleate (Tween 80) 0.5% / water (w/v/v)","10","mL/kg","2018-11-20","43"
"S-00001","EX","S-00001-251","314","ACT-709478","250","mg/kg","SOLUTION","QD","ORAL GAVAGE","2939-AA/1","Methylcellulose 0.5% / polyoxyethylene sorbitan monooleate (Tween 80) 0.5% / water (w/v/v)","10","mL/kg","2018-11-21","44"
"S-00001","EX","S-00001-251","315","ACT-709478","250","mg/kg","SOLUTION","QD","ORAL GAVAGE","2939-AA/1","Methylcellulose 0.5% / polyoxyethylene sorbitan monooleate (Tween 80) 0.5% / water (w/v/v)","10","mL/kg","2018-11-22","45"
"S-00001","EX","S-00001-252","316","ACT-709478","250","mg/kg","SOLUTION","QD","ORAL GAVAGE","2939-AA/1","Methylcellulose 0.5% / polyoxyethylene sorbitan monooleate (Tween 80) 0.5% / water (w/v/v)","10","mL/kg","2018-10-09","1"
"S-00001","EX","S-00001-252","317","ACT-709478","250","mg/kg","SOLUTION","QD","ORAL GAVAGE","2939-AA/1","Methylcellulose 0.5% / polyoxyethylene sorbitan monooleate (Tween 80) 0.5% / water (w/v/v)","10","mL/kg","2018-10-10","2"
"S-00001","EX","S-00001-252","318","ACT-709478","250","mg/kg","SOLUTION","QD","ORAL GAVAGE","2939-AA/1","Methylcellulose 0.5% / polyoxyethylene sorbitan monooleate (Tween 80) 0.5% / water (w/v/v)","10","mL/kg","2018-10-11","3"
"S-00001","EX","S-00001-252","319","ACT-709478","250","mg/kg","SOLUTION","QD","ORAL GAVAGE","2939-AA/1","Methylcellulose 0.5% / polyoxyethylene sorbitan monooleate (Tween 80) 0.5% / water (w/v/v)","10","mL/kg","2018-10-12","4"
"S-00001","EX","S-00001-252","320","ACT-709478","250","mg/kg","SOLUTION","QD","ORAL GAVAGE","2939-AA/1","Methylcellulose 0.5% / polyoxyethylene sorbitan monooleate (Tween 80) 0.5% / water (w/v/v)","10","mL/kg","2018-10-13","5"
"S-00001","EX","S-00001-252","321","ACT-709478","250","mg/kg","SOLUTION","QD","ORAL GAVAGE","2939-AA/1","Methylcellulose 0.5% / polyoxyethylene sorbitan monooleate (Tween 80) 0.5% / water (w/v/v)","10","mL/kg","2018-10-14","6"
"S-00001","EX","S-00001-252","322","ACT-709478","250","mg/kg","SOLUTION","QD","ORAL GAVAGE","2939-AA/1","Methylcellulose 0.5% / polyoxyethylene sorbitan monooleate (Tween 80) 0.5% / water (w/v/v)","10","mL/kg","2018-10-15","7"
"S-00001","EX","S-00001-252","323","ACT-709478","250","mg/kg","SOLUTION","QD","ORAL GAVAGE","2939-AA/1","Methylcellulose 0.5% / polyoxyethylene sorbitan monooleate (Tween 80) 0.5% / water (w/v/v)","10","mL/kg","2018-10-16","8"
"S-00001","EX","S-00001-252","324","ACT-709478","250","mg/kg","SOLUTION","QD","ORAL GAVAGE","2939-AA/1","Methylcellulose 0.5% / polyoxyethylene sorbitan monooleate (Tween 80) 0.5% / water (w/v/v)","10","mL/kg","2018-10-17","9"
"S-00001","EX","S-00001-252","325","ACT-709478","250","mg/kg","SOLUTION","QD","ORAL GAVAGE","2939-AA/1","Methylcellulose 0.5% / polyoxyethylene sorbitan monooleate (Tween 80) 0.5% / water (w/v/v)","10","mL/kg","2018-10-18","10"
"S-00001","EX","S-00001-252","326","ACT-709478","250","mg/kg","SOLUTION","QD","ORAL GAVAGE","2939-AA/1","Methylcellulose 0.5% / polyoxyethylene sorbitan monooleate (Tween 80) 0.5% / water (w/v/v)","10","mL/kg","2018-10-19","11"
"S-00001","EX","S-00001-252","327","ACT-709478","250","mg/kg","SOLUTION","QD","ORAL GAVAGE","2939-AA/1","Methylcellulose 0.5% / polyoxyethylene sorbitan monooleate (Tween 80) 0.5% / water (w/v/v)","10","mL/kg","2018-10-20","12"
"S-00001","EX","S-00001-252","328","ACT-709478","250","mg/kg","SOLUTION","QD","ORAL GAVAGE","2939-AA/1","Methylcellulose 0.5% / polyoxyethylene sorbitan monooleate (Tween 80) 0.5% / water (w/v/v)","10","mL/kg","2018-10-21","13"
"S-00001","EX","S-00001-252","329","ACT-709478","250","mg/kg","SOLUTION","QD","ORAL GAVAGE","2939-AA/1","Methylcellulose 0.5% / polyoxyethylene sorbitan monooleate (Tween 80) 0.5% / water (w/v/v)","10","mL/kg","2018-10-22","14"
"S-00001","EX","S-00001-252","330","ACT-709478","250","mg/kg","SOLUTION","QD","ORAL GAVAGE","2939-AA/1","Methylcellulose 0.5% / polyoxyethylene sorbitan monooleate (Tween 80) 0.5% / water (w/v/v)","10","mL/kg","2018-10-23","15"
"S-00001","EX","S-00001-252","331","ACT-709478","250","mg/kg","SOLUTION","QD","ORAL GAVAGE","2939-AA/1","Methylcellulose 0.5% / polyoxyethylene sorbitan monooleate (Tween 80) 0.5% / water (w/v/v)","10","mL/kg","2018-10-24","16"
"S-00001","EX","S-00001-252","332","ACT-709478","250","mg/kg","SOLUTION","QD","ORAL GAVAGE","2939-AA/1","Methylcellulose 0.5% / polyoxyethylene sorbitan monooleate (Tween 80) 0.5% / water (w/v/v)","10","mL/kg","2018-10-25","17"
"S-00001","EX","S-00001-252","333","ACT-709478","250","mg/kg","SOLUTION","QD","ORAL GAVAGE","2939-AA/1","Methylcellulose 0.5% / polyoxyethylene sorbitan monooleate (Tween 80) 0.5% / water (w/v/v)","10","mL/kg","2018-10-26","18"
"S-00001","EX","S-00001-252","334","ACT-709478","250","mg/kg","SOLUTION","QD","ORAL GAVAGE","2939-AA/1","Methylcellulose 0.5% / polyoxyethylene sorbitan monooleate (Tween 80) 0.5% / water (w/v/v)","10","mL/kg","2018-10-27","19"
"S-00001","EX","S-00001-252","335","ACT-709478","250","mg/kg","SOLUTION","QD","ORAL GAVAGE","2939-AA/1","Methylcellulose 0.5% / polyoxyethylene sorbitan monooleate (Tween 80) 0.5% / water (w/v/v)","10","mL/kg","2018-10-28","20"
"S-00001","EX","S-00001-252","336","ACT-709478","250","mg/kg","SOLUTION","QD","ORAL GAVAGE","2939-AA/1","Methylcellulose 0.5% / polyoxyethylene sorbitan monooleate (Tween 80) 0.5% / water (w/v/v)","10","mL/kg","2018-10-29","21"
"S-00001","EX","S-00001-252","337","ACT-709478","250","mg/kg","SOLUTION","QD","ORAL GAVAGE","2939-AA/1","Methylcellulose 0.5% / polyoxyethylene sorbitan monooleate (Tween 80) 0.5% / water (w/v/v)","10","mL/kg","2018-10-30","22"
"S-00001","EX","S-00001-252","338","ACT-709478","250","mg/kg","SOLUTION","QD","ORAL GAVAGE","2939-AA/1","Methylcellulose 0.5% / polyoxyethylene sorbitan monooleate (Tween 80) 0.5% / water (w/v/v)","10","mL/kg","2018-10-31","23"
"S-00001","EX","S-00001-252","339","ACT-709478","250","mg/kg","SOLUTION","QD","ORAL GAVAGE","2939-AA/1","Methylcellulose 0.5% / polyoxyethylene sorbitan monooleate (Tween 80) 0.5% / water (w/v/v)","10","mL/kg","2018-11-01","24"
"S-00001","EX","S-00001-252","340","ACT-709478","250","mg/kg","SOLUTION","QD","ORAL GAVAGE","2939-AA/1","Methylcellulose 0.5% / polyoxyethylene sorbitan monooleate (Tween 80) 0.5% / water (w/v/v)","10","mL/kg","2018-11-02","25"
"S-00001","EX","S-00001-252","341","ACT-709478","250","mg/kg","SOLUTION","QD","ORAL GAVAGE","2939-AA/1","Methylcellulose 0.5% / polyoxyethylene sorbitan monooleate (Tween 80) 0.5% / water (w/v/v)","10","mL/kg","2018-11-03","26"
"S-00001","EX","S-00001-252","342","ACT-709478","250","mg/kg","SOLUTION","QD","ORAL GAVAGE","2939-AA/1","Methylcellulose 0.5% / polyoxyethylene sorbitan monooleate (Tween 80) 0.5% / water (w/v/v)","10","mL/kg","2018-11-04","27"
"S-00001","EX","S-00001-252","343","ACT-709478","250","mg/kg","SOLUTION","QD","ORAL GAVAGE","2939-AA/1","Methylcellulose 0.5% / polyoxyethylene sorbitan monooleate (Tween 80) 0.5% / water (w/v/v)","10","mL/kg","2018-11-05","28"
"S-00001","EX","S-00001-252","344","ACT-709478","250","mg/kg","SOLUTION","QD","ORAL GAVAGE","2939-AA/1","Methylcellulose 0.5% / polyoxyethylene sorbitan monooleate (Tween 80) 0.5% / water (w/v/v)","10","mL/kg","2018-11-06","29"
"S-00001","EX","S-00001-252","345","ACT-709478","250","mg/kg","SOLUTION","QD","ORAL GAVAGE","2939-AA/1","Methylcellulose 0.5% / polyoxyethylene sorbitan monooleate (Tween 80) 0.5% / water (w/v/v)","10","mL/kg","2018-11-07","30"
"S-00001","EX","S-00001-252","346","ACT-709478","250","mg/kg","SOLUTION","QD","ORAL GAVAGE","2939-AA/1","Methylcellulose 0.5% / polyoxyethylene sorbitan monooleate (Tween 80) 0.5% / water (w/v/v)","10","mL/kg","2018-11-08","31"
"S-00001","EX","S-00001-252","347","ACT-709478","250","mg/kg","SOLUTION","QD","ORAL GAVAGE","2939-AA/1","Methylcellulose 0.5% / polyoxyethylene sorbitan monooleate (Tween 80) 0.5% / water (w/v/v)","10","mL/kg","2018-11-09","32"
"S-00001","EX","S-00001-252","348","ACT-709478","250","mg/kg","SOLUTION","QD","ORAL GAVAGE","2939-AA/1","Methylcellulose 0.5% / polyoxyethylene sorbitan monooleate (Tween 80) 0.5% / water (w/v/v)","10","mL/kg","2018-11-10","33"
"S-00001","EX","S-00001-252","349","ACT-709478","250","mg/kg","SOLUTION","QD","ORAL GAVAGE","2939-AA/1","Methylcellulose 0.5% / polyoxyethylene sorbitan monooleate (Tween 80) 0.5% / water (w/v/v)","10","mL/kg","2018-11-11","34"
"S-00001","EX","S-00001-252","350","ACT-709478","250","mg/kg","SOLUTION","QD","ORAL GAVAGE","2939-AA/1","Methylcellulose 0.5% / polyoxyethylene sorbitan monooleate (Tween 80) 0.5% / water (w/v/v)","10","mL/kg","2018-11-12","35"
"S-00001","EX","S-00001-252","351","ACT-709478","250","mg/kg","SOLUTION","QD","ORAL GAVAGE","2939-AA/1","Methylcellulose 0.5% / polyoxyethylene sorbitan monooleate (Tween 80) 0.5% / water (w/v/v)","10","mL/kg","2018-11-13","36"
"S-00001","EX","S-00001-252","352","ACT-709478","250","mg/kg","SOLUTION","QD","ORAL GAVAGE","2939-AA/1","Methylcellulose 0.5% / polyoxyethylene sorbitan monooleate (Tween 80) 0.5% / water (w/v/v)","10","mL/kg","2018-11-14","37"
"S-00001","EX","S-00001-252","353","ACT-709478","250","mg/kg","SOLUTION","QD","ORAL GAVAGE","2939-AA/1","Methylcellulose 0.5% / polyoxyethylene sorbitan monooleate (Tween 80) 0.5% / water (w/v/v)","10","mL/kg","2018-11-15","38"
"S-00001","EX","S-00001-252","354","ACT-709478","250","mg/kg","SOLUTION","QD","ORAL GAVAGE","2939-AA/1","Methylcellulose 0.5% / polyoxyethylene sorbitan monooleate (Tween 80) 0.5% / water (w/v/v)","10","mL/kg","2018-11-16","39"
"S-00001","EX","S-00001-252","355","ACT-709478","250","mg/kg","SOLUTION","QD","ORAL GAVAGE","2939-AA/1","Methylcellulose 0.5% / polyoxyethylene sorbitan monooleate (Tween 80) 0.5% / water (w/v/v)","10","mL/kg","2018-11-17","40"
"S-00001","EX","S-00001-252","356","ACT-709478","250","mg/kg","SOLUTION","QD","ORAL GAVAGE","2939-AA/1","Methylcellulose 0.5% / polyoxyethylene sorbitan monooleate (Tween 80) 0.5% / water (w/v/v)","10","mL/kg","2018-11-18","41"
"S-00001","EX","S-00001-252","357","ACT-709478","250","mg/kg","SOLUTION","QD","ORAL GAVAGE","2939-AA/1","Methylcellulose 0.5% / polyoxyethylene sorbitan monooleate (Tween 80) 0.5% / water (w/v/v)","10","mL/kg","2018-11-19","42"
"S-00001","EX","S-00001-252","358","ACT-709478","250","mg/kg","SOLUTION","QD","ORAL GAVAGE","2939-AA/1","Methylcellulose 0.5% / polyoxyethylene sorbitan monooleate (Tween 80) 0.5% / water (w/v/v)","10","mL/kg","2018-11-20","43"
"S-00001","EX","S-00001-252","359","ACT-709478","250","mg/kg","SOLUTION","QD","ORAL GAVAGE","2939-AA/1","Methylcellulose 0.5% / polyoxyethylene sorbitan monooleate (Tween 80) 0.5% / water (w/v/v)","10","mL/kg","2018-11-21","44"
"S-00001","EX","S-00001-252","360","ACT-709478","250","mg/kg","SOLUTION","QD","ORAL GAVAGE","2939-AA/1","Methylcellulose 0.5% / polyoxyethylene sorbitan monooleate (Tween 80) 0.5% / water (w/v/v)","10","mL/kg","2018-11-22","45"
"S-00001","EX","S-00001-253","361","ACT-709478","250","mg/kg","SOLUTION","QD","ORAL GAVAGE","2939-AA/1","Methylcellulose 0.5% / polyoxyethylene sorbitan monooleate (Tween 80) 0.5% / water (w/v/v)","10","mL/kg","2018-10-09","1"
"S-00001","EX","S-00001-253","362","ACT-709478","250","mg/kg","SOLUTION","QD","ORAL GAVAGE","2939-AA/1","Methylcellulose 0.5% / polyoxyethylene sorbitan monooleate (Tween 80) 0.5% / water (w/v/v)","10","mL/kg","2018-10-10","2"
"S-00001","EX","S-00001-253","363","ACT-709478","250","mg/kg","SOLUTION","QD","ORAL GAVAGE","2939-AA/1","Methylcellulose 0.5% / polyoxyethylene sorbitan monooleate (Tween 80) 0.5% / water (w/v/v)","10","mL/kg","2018-10-11","3"
"S-00001","EX","S-00001-253","364","ACT-709478","250","mg/kg","SOLUTION","QD","ORAL GAVAGE","2939-AA/1","Methylcellulose 0.5% / polyoxyethylene sorbitan monooleate (Tween 80) 0.5% / water (w/v/v)","10","mL/kg","2018-10-12","4"
"S-00001","EX","S-00001-253","365","ACT-709478","250","mg/kg","SOLUTION","QD","ORAL GAVAGE","2939-AA/1","Methylcellulose 0.5% / polyoxyethylene sorbitan monooleate (Tween 80) 0.5% / water (w/v/v)","10","mL/kg","2018-10-13","5"
"S-00001","EX","S-00001-253","366","ACT-709478","250","mg/kg","SOLUTION","QD","ORAL GAVAGE","2939-AA/1","Methylcellulose 0.5% / polyoxyethylene sorbitan monooleate (Tween 80) 0.5% / water (w/v/v)","10","mL/kg","2018-10-14","6"
"S-00001","EX","S-00001-253","367","ACT-709478","250","mg/kg","SOLUTION","QD","ORAL GAVAGE","2939-AA/1","Methylcellulose 0.5% / polyoxyethylene sorbitan monooleate (Tween 80) 0.5% / water (w/v/v)","10","mL/kg","2018-10-15","7"
"S-00001","EX","S-00001-253","368","ACT-709478","250","mg/kg","SOLUTION","QD","ORAL GAVAGE","2939-AA/1","Methylcellulose 0.5% / polyoxyethylene sorbitan monooleate (Tween 80) 0.5% / water (w/v/v)","10","mL/kg","2018-10-16","8"
"S-00001","EX","S-00001-253","369","ACT-709478","250","mg/kg","SOLUTION","QD","ORAL GAVAGE","2939-AA/1","Methylcellulose 0.5% / polyoxyethylene sorbitan monooleate (Tween 80) 0.5% / water (w/v/v)","10","mL/kg","2018-10-17","9"
"S-00001","EX","S-00001-253","370","ACT-709478","250","mg/kg","SOLUTION","QD","ORAL GAVAGE","2939-AA/1","Methylcellulose 0.5% / polyoxyethylene sorbitan monooleate (Tween 80) 0.5% / water (w/v/v)","10","mL/kg","2018-10-18","10"
"S-00001","EX","S-00001-253","371","ACT-709478","250","mg/kg","SOLUTION","QD","ORAL GAVAGE","2939-AA/1","Methylcellulose 0.5% / polyoxyethylene sorbitan monooleate (Tween 80) 0.5% / water (w/v/v)","10","mL/kg","2018-10-19","11"
"S-00001","EX","S-00001-253","372","ACT-709478","250","mg/kg","SOLUTION","QD","ORAL GAVAGE","2939-AA/1","Methylcellulose 0.5% / polyoxyethylene sorbitan monooleate (Tween 80) 0.5% / water (w/v/v)","10","mL/kg","2018-10-20","12"
"S-00001","EX","S-00001-253","373","ACT-709478","250","mg/kg","SOLUTION","QD","ORAL GAVAGE","2939-AA/1","Methylcellulose 0.5% / polyoxyethylene sorbitan monooleate (Tween 80) 0.5% / water (w/v/v)","10","mL/kg","2018-10-21","13"
"S-00001","EX","S-00001-253","374","ACT-709478","250","mg/kg","SOLUTION","QD","ORAL GAVAGE","2939-AA/1","Methylcellulose 0.5% / polyoxyethylene sorbitan monooleate (Tween 80) 0.5% / water (w/v/v)","10","mL/kg","2018-10-22","14"
"S-00001","EX","S-00001-253","375","ACT-709478","250","mg/kg","SOLUTION","QD","ORAL GAVAGE","2939-AA/1","Methylcellulose 0.5% / polyoxyethylene sorbitan monooleate (Tween 80) 0.5% / water (w/v/v)","10","mL/kg","2018-10-23","15"
"S-00001","EX","S-00001-253","376","ACT-709478","250","mg/kg","SOLUTION","QD","ORAL GAVAGE","2939-AA/1","Methylcellulose 0.5% / polyoxyethylene sorbitan monooleate (Tween 80) 0.5% / water (w/v/v)","10","mL/kg","2018-10-24","16"
"S-00001","EX","S-00001-253","377","ACT-709478","250","mg/kg","SOLUTION","QD","ORAL GAVAGE","2939-AA/1","Methylcellulose 0.5% / polyoxyethylene sorbitan monooleate (Tween 80) 0.5% / water (w/v/v)","10","mL/kg","2018-10-25","17"
"S-00001","EX","S-00001-253","378","ACT-709478","250","mg/kg","SOLUTION","QD","ORAL GAVAGE","2939-AA/1","Methylcellulose 0.5% / polyoxyethylene sorbitan monooleate (Tween 80) 0.5% / water (w/v/v)","10","mL/kg","2018-10-26","18"
"S-00001","EX","S-00001-253","379","ACT-709478","250","mg/kg","SOLUTION","QD","ORAL GAVAGE","2939-AA/1","Methylcellulose 0.5% / polyoxyethylene sorbitan monooleate (Tween 80) 0.5% / water (w/v/v)","10","mL/kg","2018-10-27","19"
"S-00001","EX","S-00001-253","380","ACT-709478","250","mg/kg","SOLUTION","QD","ORAL GAVAGE","2939-AA/1","Methylcellulose 0.5% / polyoxyethylene sorbitan monooleate (Tween 80) 0.5% / water (w/v/v)","10","mL/kg","2018-10-28","20"
"S-00001","EX","S-00001-253","381","ACT-709478","250","mg/kg","SOLUTION","QD","ORAL GAVAGE","2939-AA/1","Methylcellulose 0.5% / polyoxyethylene sorbitan monooleate (Tween 80) 0.5% / water (w/v/v)","10","mL/kg","2018-10-29","21"
"S-00001","EX","S-00001-253","382","ACT-709478","250","mg/kg","SOLUTION","QD","ORAL GAVAGE","2939-AA/1","Methylcellulose 0.5% / polyoxyethylene sorbitan monooleate (Tween 80) 0.5% / water (w/v/v)","10","mL/kg","2018-10-30","22"
"S-00001","EX","S-00001-253","383","ACT-709478","250","mg/kg","SOLUTION","QD","ORAL GAVAGE","2939-AA/1","Methylcellulose 0.5% / polyoxyethylene sorbitan monooleate (Tween 80) 0.5% / water (w/v/v)","10","mL/kg","2018-10-31","23"
"S-00001","EX","S-00001-253","384","ACT-709478","250","mg/kg","SOLUTION","QD","ORAL GAVAGE","2939-AA/1","Methylcellulose 0.5% / polyoxyethylene sorbitan monooleate (Tween 80) 0.5% / water (w/v/v)","10","mL/kg","2018-11-01","24"
"S-00001","EX","S-00001-253","385","ACT-709478","250","mg/kg","SOLUTION","QD","ORAL GAVAGE","2939-AA/1","Methylcellulose 0.5% / polyoxyethylene sorbitan monooleate (Tween 80) 0.5% / water (w/v/v)","10","mL/kg","2018-11-02","25"
"S-00001","EX","S-00001-253","386","ACT-709478","250","mg/kg","SOLUTION","QD","ORAL GAVAGE","2939-AA/1","Methylcellulose 0.5% / polyoxyethylene sorbitan monooleate (Tween 80) 0.5% / water (w/v/v)","10","mL/kg","2018-11-03","26"
"S-00001","EX","S-00001-253","387","ACT-709478","250","mg/kg","SOLUTION","QD","ORAL GAVAGE","2939-AA/1","Methylcellulose 0.5% / polyoxyethylene sorbitan monooleate (Tween 80) 0.5% / water (w/v/v)","10","mL/kg","2018-11-04","27"
"S-00001","EX","S-00001-253","388","ACT-709478","250","mg/kg","SOLUTION","QD","ORAL GAVAGE","2939-AA/1","Methylcellulose 0.5% / polyoxyethylene sorbitan monooleate (Tween 80) 0.5% / water (w/v/v)","10","mL/kg","2018-11-05","28"
"S-00001","EX","S-00001-253","389","ACT-709478","250","mg/kg","SOLUTION","QD","ORAL GAVAGE","2939-AA/1","Methylcellulose 0.5% / polyoxyethylene sorbitan monooleate (Tween 80) 0.5% / water (w/v/v)","10","mL/kg","2018-11-06","29"
"S-00001","EX","S-00001-253","390","ACT-709478","250","mg/kg","SOLUTION","QD","ORAL GAVAGE","2939-AA/1","Methylcellulose 0.5% / polyoxyethylene sorbitan monooleate (Tween 80) 0.5% / water (w/v/v)","10","mL/kg","2018-11-07","30"
"S-00001","EX","S-00001-253","391","ACT-709478","250","mg/kg","SOLUTION","QD","ORAL GAVAGE","2939-AA/1","Methylcellulose 0.5% / polyoxyethylene sorbitan monooleate (Tween 80) 0.5% / water (w/v/v)","10","mL/kg","2018-11-08","31"
"S-00001","EX","S-00001-253","392","ACT-709478","250","mg/kg","SOLUTION","QD","ORAL GAVAGE","2939-AA/1","Methylcellulose 0.5% / polyoxyethylene sorbitan monooleate (Tween 80) 0.5% / water (w/v/v)","10","mL/kg","2018-11-09","32"
"S-00001","EX","S-00001-253","393","ACT-709478","250","mg/kg","SOLUTION","QD","ORAL GAVAGE","2939-AA/1","Methylcellulose 0.5% / polyoxyethylene sorbitan monooleate (Tween 80) 0.5% / water (w/v/v)","10","mL/kg","2018-11-10","33"
"S-00001","EX","S-00001-253","394","ACT-709478","250","mg/kg","SOLUTION","QD","ORAL GAVAGE","2939-AA/1","Methylcellulose 0.5% / polyoxyethylene sorbitan monooleate (Tween 80) 0.5% / water (w/v/v)","10","mL/kg","2018-11-11","34"
"S-00001","EX","S-00001-253","395","ACT-709478","250","mg/kg","SOLUTION","QD","ORAL GAVAGE","2939-AA/1","Methylcellulose 0.5% / polyoxyethylene sorbitan monooleate (Tween 80) 0.5% / water (w/v/v)","10","mL/kg","2018-11-12","35"
"S-00001","EX","S-00001-253","396","ACT-709478","250","mg/kg","SOLUTION","QD","ORAL GAVAGE","2939-AA/1","Methylcellulose 0.5% / polyoxyethylene sorbitan monooleate (Tween 80) 0.5% / water (w/v/v)","10","mL/kg","2018-11-13","36"
"S-00001","EX","S-00001-253","397","ACT-709478","250","mg/kg","SOLUTION","QD","ORAL GAVAGE","2939-AA/1","Methylcellulose 0.5% / polyoxyethylene sorbitan monooleate (Tween 80) 0.5% / water (w/v/v)","10","mL/kg","2018-11-14","37"
"S-00001","EX","S-00001-253","398","ACT-709478","250","mg/kg","SOLUTION","QD","ORAL GAVAGE","2939-AA/1","Methylcellulose 0.5% / polyoxyethylene sorbitan monooleate (Tween 80) 0.5% / water (w/v/v)","10","mL/kg","2018-11-15","38"
"S-00001","EX","S-00001-253","399","ACT-709478","250","mg/kg","SOLUTION","QD","ORAL GAVAGE","2939-AA/1","Methylcellulose 0.5% / polyoxyethylene sorbitan monooleate (Tween 80) 0.5% / water (w/v/v)","10","mL/kg","2018-11-16","39"
"S-00001","EX","S-00001-253","400","ACT-709478","250","mg/kg","SOLUTION","QD","ORAL GAVAGE","2939-AA/1","Methylcellulose 0.5% / polyoxyethylene sorbitan monooleate (Tween 80) 0.5% / water (w/v/v)","10","mL/kg","2018-11-17","40"
"S-00001","EX","S-00001-253","401","ACT-709478","250","mg/kg","SOLUTION","QD","ORAL GAVAGE","2939-AA/1","Methylcellulose 0.5% / polyoxyethylene sorbitan monooleate (Tween 80) 0.5% / water (w/v/v)","10","mL/kg","2018-11-18","41"
"S-00001","EX","S-00001-253","402","ACT-709478","250","mg/kg","SOLUTION","QD","ORAL GAVAGE","2939-AA/1","Methylcellulose 0.5% / polyoxyethylene sorbitan monooleate (Tween 80) 0.5% / water (w/v/v)","10","mL/kg","2018-11-19","42"
"S-00001","EX","S-00001-253","403","ACT-709478","250","mg/kg","SOLUTION","QD","ORAL GAVAGE","2939-AA/1","Methylcellulose 0.5% / polyoxyethylene sorbitan monooleate (Tween 80) 0.5% / water (w/v/v)","10","mL/kg","2018-11-20","43"
"S-00001","EX","S-00001-253","404","ACT-709478","250","mg/kg","SOLUTION","QD","ORAL GAVAGE","2939-AA/1","Methylcellulose 0.5% / polyoxyethylene sorbitan monooleate (Tween 80) 0.5% / water (w/v/v)","10","mL/kg","2018-11-21","44"
"S-00001","EX","S-00001-253","405","ACT-709478","250","mg/kg","SOLUTION","QD","ORAL GAVAGE","2939-AA/1","Methylcellulose 0.5% / polyoxyethylene sorbitan monooleate (Tween 80) 0.5% / water (w/v/v)","10","mL/kg","2018-11-22","45"
"S-00001","EX","S-00001-254","406","ACT-709478","250","mg/kg","SOLUTION","QD","ORAL GAVAGE","2939-AA/1","Methylcellulose 0.5% / polyoxyethylene sorbitan monooleate (Tween 80) 0.5% / water (w/v/v)","10","mL/kg","2018-10-09","1"
"S-00001","EX","S-00001-254","407","ACT-709478","250","mg/kg","SOLUTION","QD","ORAL GAVAGE","2939-AA/1","Methylcellulose 0.5% / polyoxyethylene sorbitan monooleate (Tween 80) 0.5% / water (w/v/v)","10","mL/kg","2018-10-10","2"
"S-00001","EX","S-00001-254","408","ACT-709478","250","mg/kg","SOLUTION","QD","ORAL GAVAGE","2939-AA/1","Methylcellulose 0.5% / polyoxyethylene sorbitan monooleate (Tween 80) 0.5% / water (w/v/v)","10","mL/kg","2018-10-11","3"
"S-00001","EX","S-00001-254","409","ACT-709478","250","mg/kg","SOLUTION","QD","ORAL GAVAGE","2939-AA/1","Methylcellulose 0.5% / polyoxyethylene sorbitan monooleate (Tween 80) 0.5% / water (w/v/v)","10","mL/kg","2018-10-12","4"
"S-00001","EX","S-00001-254","410","ACT-709478","250","mg/kg","SOLUTION","QD","ORAL GAVAGE","2939-AA/1","Methylcellulose 0.5% / polyoxyethylene sorbitan monooleate (Tween 80) 0.5% / water (w/v/v)","10","mL/kg","2018-10-13","5"
"S-00001","EX","S-00001-254","411","ACT-709478","250","mg/kg","SOLUTION","QD","ORAL GAVAGE","2939-AA/1","Methylcellulose 0.5% / polyoxyethylene sorbitan monooleate (Tween 80) 0.5% / water (w/v/v)","10","mL/kg","2018-10-14","6"
"S-00001","EX","S-00001-254","412","ACT-709478","250","mg/kg","SOLUTION","QD","ORAL GAVAGE","2939-AA/1","Methylcellulose 0.5% / polyoxyethylene sorbitan monooleate (Tween 80) 0.5% / water (w/v/v)","10","mL/kg","2018-10-15","7"
"S-00001","EX","S-00001-254","413","ACT-709478","250","mg/kg","SOLUTION","QD","ORAL GAVAGE","2939-AA/1","Methylcellulose 0.5% / polyoxyethylene sorbitan monooleate (Tween 80) 0.5% / water (w/v/v)","10","mL/kg","2018-10-16","8"
"S-00001","EX","S-00001-254","414","ACT-709478","250","mg/kg","SOLUTION","QD","ORAL GAVAGE","2939-AA/1","Methylcellulose 0.5% / polyoxyethylene sorbitan monooleate (Tween 80) 0.5% / water (w/v/v)","10","mL/kg","2018-10-17","9"
"S-00001","EX","S-00001-254","415","ACT-709478","250","mg/kg","SOLUTION","QD","ORAL GAVAGE","2939-AA/1","Methylcellulose 0.5% / polyoxyethylene sorbitan monooleate (Tween 80) 0.5% / water (w/v/v)","10","mL/kg","2018-10-18","10"
"S-00001","EX","S-00001-254","416","ACT-709478","250","mg/kg","SOLUTION","QD","ORAL GAVAGE","2939-AA/1","Methylcellulose 0.5% / polyoxyethylene sorbitan monooleate (Tween 80) 0.5% / water (w/v/v)","10","mL/kg","2018-10-19","11"
"S-00001","EX","S-00001-254","417","ACT-709478","250","mg/kg","SOLUTION","QD","ORAL GAVAGE","2939-AA/1","Methylcellulose 0.5% / polyoxyethylene sorbitan monooleate (Tween 80) 0.5% / water (w/v/v)","10","mL/kg","2018-10-20","12"
"S-00001","EX","S-00001-254","418","ACT-709478","250","mg/kg","SOLUTION","QD","ORAL GAVAGE","2939-AA/1","Methylcellulose 0.5% / polyoxyethylene sorbitan monooleate (Tween 80) 0.5% / water (w/v/v)","10","mL/kg","2018-10-21","13"
"S-00001","EX","S-00001-254","419","ACT-709478","250","mg/kg","SOLUTION","QD","ORAL GAVAGE","2939-AA/1","Methylcellulose 0.5% / polyoxyethylene sorbitan monooleate (Tween 80) 0.5% / water (w/v/v)","10","mL/kg","2018-10-22","14"
"S-00001","EX","S-00001-254","420","ACT-709478","250","mg/kg","SOLUTION","QD","ORAL GAVAGE","2939-AA/1","Methylcellulose 0.5% / polyoxyethylene sorbitan monooleate (Tween 80) 0.5% / water (w/v/v)","10","mL/kg","2018-10-23","15"
"S-00001","EX","S-00001-254","421","ACT-709478","250","mg/kg","SOLUTION","QD","ORAL GAVAGE","2939-AA/1","Methylcellulose 0.5% / polyoxyethylene sorbitan monooleate (Tween 80) 0.5% / water (w/v/v)","10","mL/kg","2018-10-24","16"
"S-00001","EX","S-00001-254","422","ACT-709478","250","mg/kg","SOLUTION","QD","ORAL GAVAGE","2939-AA/1","Methylcellulose 0.5% / polyoxyethylene sorbitan monooleate (Tween 80) 0.5% / water (w/v/v)","10","mL/kg","2018-10-25","17"
"S-00001","EX","S-00001-254","423","ACT-709478","250","mg/kg","SOLUTION","QD","ORAL GAVAGE","2939-AA/1","Methylcellulose 0.5% / polyoxyethylene sorbitan monooleate (Tween 80) 0.5% / water (w/v/v)","10","mL/kg","2018-10-26","18"
"S-00001","EX","S-00001-254","424","ACT-709478","250","mg/kg","SOLUTION","QD","ORAL GAVAGE","2939-AA/1","Methylcellulose 0.5% / polyoxyethylene sorbitan monooleate (Tween 80) 0.5% / water (w/v/v)","10","mL/kg","2018-10-27","19"
"S-00001","EX","S-00001-254","425","ACT-709478","250","mg/kg","SOLUTION","QD","ORAL GAVAGE","2939-AA/1","Methylcellulose 0.5% / polyoxyethylene sorbitan monooleate (Tween 80) 0.5% / water (w/v/v)","10","mL/kg","2018-10-28","20"
"S-00001","EX","S-00001-254","426","ACT-709478","250","mg/kg","SOLUTION","QD","ORAL GAVAGE","2939-AA/1","Methylcellulose 0.5% / polyoxyethylene sorbitan monooleate (Tween 80) 0.5% / water (w/v/v)","10","mL/kg","2018-10-29","21"
"S-00001","EX","S-00001-254","427","ACT-709478","250","mg/kg","SOLUTION","QD","ORAL GAVAGE","2939-AA/1","Methylcellulose 0.5% / polyoxyethylene sorbitan monooleate (Tween 80) 0.5% / water (w/v/v)","10","mL/kg","2018-10-30","22"
"S-00001","EX","S-00001-254","428","ACT-709478","250","mg/kg","SOLUTION","QD","ORAL GAVAGE","2939-AA/1","Methylcellulose 0.5% / polyoxyethylene sorbitan monooleate (Tween 80) 0.5% / water (w/v/v)","10","mL/kg","2018-10-31","23"
"S-00001","EX","S-00001-254","429","ACT-709478","250","mg/kg","SOLUTION","QD","ORAL GAVAGE","2939-AA/1","Methylcellulose 0.5% / polyoxyethylene sorbitan monooleate (Tween 80) 0.5% / water (w/v/v)","10","mL/kg","2018-11-01","24"
"S-00001","EX","S-00001-254","430","ACT-709478","250","mg/kg","SOLUTION","QD","ORAL GAVAGE","2939-AA/1","Methylcellulose 0.5% / polyoxyethylene sorbitan monooleate (Tween 80) 0.5% / water (w/v/v)","10","mL/kg","2018-11-02","25"
"S-00001","EX","S-00001-254","431","ACT-709478","250","mg/kg","SOLUTION","QD","ORAL GAVAGE","2939-AA/1","Methylcellulose 0.5% / polyoxyethylene sorbitan monooleate (Tween 80) 0.5% / water (w/v/v)","10","mL/kg","2018-11-03","26"
"S-00001","EX","S-00001-254","432","ACT-709478","250","mg/kg","SOLUTION","QD","ORAL GAVAGE","2939-AA/1","Methylcellulose 0.5% / polyoxyethylene sorbitan monooleate (Tween 80) 0.5% / water (w/v/v)","10","mL/kg","2018-11-04","27"
"S-00001","EX","S-00001-254","433","ACT-709478","250","mg/kg","SOLUTION","QD","ORAL GAVAGE","2939-AA/1","Methylcellulose 0.5% / polyoxyethylene sorbitan monooleate (Tween 80) 0.5% / water (w/v/v)","10","mL/kg","2018-11-05","28"
"S-00001","EX","S-00001-254","434","ACT-709478","250","mg/kg","SOLUTION","QD","ORAL GAVAGE","2939-AA/1","Methylcellulose 0.5% / polyoxyethylene sorbitan monooleate (Tween 80) 0.5% / water (w/v/v)","10","mL/kg","2018-11-06","29"
"S-00001","EX","S-00001-254","435","ACT-709478","250","mg/kg","SOLUTION","QD","ORAL GAVAGE","2939-AA/1","Methylcellulose 0.5% / polyoxyethylene sorbitan monooleate (Tween 80) 0.5% / water (w/v/v)","10","mL/kg","2018-11-07","30"
"S-00001","EX","S-00001-254","436","ACT-709478","250","mg/kg","SOLUTION","QD","ORAL GAVAGE","2939-AA/1","Methylcellulose 0.5% / polyoxyethylene sorbitan monooleate (Tween 80) 0.5% / water (w/v/v)","10","mL/kg","2018-11-08","31"
"S-00001","EX","S-00001-254","437","ACT-709478","250","mg/kg","SOLUTION","QD","ORAL GAVAGE","2939-AA/1","Methylcellulose 0.5% / polyoxyethylene sorbitan monooleate (Tween 80) 0.5% / water (w/v/v)","10","mL/kg","2018-11-09","32"
"S-00001","EX","S-00001-254","438","ACT-709478","250","mg/kg","SOLUTION","QD","ORAL GAVAGE","2939-AA/1","Methylcellulose 0.5% / polyoxyethylene sorbitan monooleate (Tween 80) 0.5% / water (w/v/v)","10","mL/kg","2018-11-10","33"
"S-00001","EX","S-00001-254","439","ACT-709478","250","mg/kg","SOLUTION","QD","ORAL GAVAGE","2939-AA/1","Methylcellulose 0.5% / polyoxyethylene sorbitan monooleate (Tween 80) 0.5% / water (w/v/v)","10","mL/kg","2018-11-11","34"
"S-00001","EX","S-00001-254","440","ACT-709478","250","mg/kg","SOLUTION","QD","ORAL GAVAGE","2939-AA/1","Methylcellulose 0.5% / polyoxyethylene sorbitan monooleate (Tween 80) 0.5% / water (w/v/v)","10","mL/kg","2018-11-12","35"
"S-00001","EX","S-00001-254","441","ACT-709478","250","mg/kg","SOLUTION","QD","ORAL GAVAGE","2939-AA/1","Methylcellulose 0.5% / polyoxyethylene sorbitan monooleate (Tween 80) 0.5% / water (w/v/v)","10","mL/kg","2018-11-13","36"
"S-00001","EX","S-00001-254","442","ACT-709478","250","mg/kg","SOLUTION","QD","ORAL GAVAGE","2939-AA/1","Methylcellulose 0.5% / polyoxyethylene sorbitan monooleate (Tween 80) 0.5% / water (w/v/v)","10","mL/kg","2018-11-14","37"
"S-00001","EX","S-00001-254","443","ACT-709478","250","mg/kg","SOLUTION","QD","ORAL GAVAGE","2939-AA/1","Methylcellulose 0.5% / polyoxyethylene sorbitan monooleate (Tween 80) 0.5% / water (w/v/v)","10","mL/kg","2018-11-15","38"
"S-00001","EX","S-00001-254","444","ACT-709478","250","mg/kg","SOLUTION","QD","ORAL GAVAGE","2939-AA/1","Methylcellulose 0.5% / polyoxyethylene sorbitan monooleate (Tween 80) 0.5% / water (w/v/v)","10","mL/kg","2018-11-16","39"
"S-00001","EX","S-00001-254","445","ACT-709478","250","mg/kg","SOLUTION","QD","ORAL GAVAGE","2939-AA/1","Methylcellulose 0.5% / polyoxyethylene sorbitan monooleate (Tween 80) 0.5% / water (w/v/v)","10","mL/kg","2018-11-17","40"
"S-00001","EX","S-00001-254","446","ACT-709478","250","mg/kg","SOLUTION","QD","ORAL GAVAGE","2939-AA/1","Methylcellulose 0.5% / polyoxyethylene sorbitan monooleate (Tween 80) 0.5% / water (w/v/v)","10","mL/kg","2018-11-18","41"
"S-00001","EX","S-00001-254","447","ACT-709478","250","mg/kg","SOLUTION","QD","ORAL GAVAGE","2939-AA/1","Methylcellulose 0.5% / polyoxyethylene sorbitan monooleate (Tween 80) 0.5% / water (w/v/v)","10","mL/kg","2018-11-19","42"
"S-00001","EX","S-00001-254","448","ACT-709478","250","mg/kg","SOLUTION","QD","ORAL GAVAGE","2939-AA/1","Methylcellulose 0.5% / polyoxyethylene sorbitan monooleate (Tween 80) 0.5% / water (w/v/v)","10","mL/kg","2018-11-20","43"
"S-00001","EX","S-00001-254","449","ACT-709478","250","mg/kg","SOLUTION","QD","ORAL GAVAGE","2939-AA/1","Methylcellulose 0.5% / polyoxyethylene sorbitan monooleate (Tween 80) 0.5% / water (w/v/v)","10","mL/kg","2018-11-21","44"
"S-00001","EX","S-00001-254","450","ACT-709478","250","mg/kg","SOLUTION","QD","ORAL GAVAGE","2939-AA/1","Methylcellulose 0.5% / polyoxyethylene sorbitan monooleate (Tween 80) 0.5% / water (w/v/v)","10","mL/kg","2018-11-22","45"
"S-00001","EX","S-00001-255","451","ACT-709478","250","mg/kg","SOLUTION","QD","ORAL GAVAGE","2939-AA/1","Methylcellulose 0.5% / polyoxyethylene sorbitan monooleate (Tween 80) 0.5% / water (w/v/v)","10","mL/kg","2018-10-09","1"
"S-00001","EX","S-00001-255","452","ACT-709478","250","mg/kg","SOLUTION","QD","ORAL GAVAGE","2939-AA/1","Methylcellulose 0.5% / polyoxyethylene sorbitan monooleate (Tween 80) 0.5% / water (w/v/v)","10","mL/kg","2018-10-10","2"
"S-00001","EX","S-00001-255","453","ACT-709478","250","mg/kg","SOLUTION","QD","ORAL GAVAGE","2939-AA/1","Methylcellulose 0.5% / polyoxyethylene sorbitan monooleate (Tween 80) 0.5% / water (w/v/v)","10","mL/kg","2018-10-11","3"
"S-00001","EX","S-00001-255","454","ACT-709478","250","mg/kg","SOLUTION","QD","ORAL GAVAGE","2939-AA/1","Methylcellulose 0.5% / polyoxyethylene sorbitan monooleate (Tween 80) 0.5% / water (w/v/v)","10","mL/kg","2018-10-12","4"
"S-00001","EX","S-00001-255","455","ACT-709478","250","mg/kg","SOLUTION","QD","ORAL GAVAGE","2939-AA/1","Methylcellulose 0.5% / polyoxyethylene sorbitan monooleate (Tween 80) 0.5% / water (w/v/v)","10","mL/kg","2018-10-13","5"
"S-00001","EX","S-00001-255","456","ACT-709478","250","mg/kg","SOLUTION","QD","ORAL GAVAGE","2939-AA/1","Methylcellulose 0.5% / polyoxyethylene sorbitan monooleate (Tween 80) 0.5% / water (w/v/v)","10","mL/kg","2018-10-14","6"
"S-00001","EX","S-00001-255","457","ACT-709478","250","mg/kg","SOLUTION","QD","ORAL GAVAGE","2939-AA/1","Methylcellulose 0.5% / polyoxyethylene sorbitan monooleate (Tween 80) 0.5% / water (w/v/v)","10","mL/kg","2018-10-15","7"
"S-00001","EX","S-00001-255","458","ACT-709478","250","mg/kg","SOLUTION","QD","ORAL GAVAGE","2939-AA/1","Methylcellulose 0.5% / polyoxyethylene sorbitan monooleate (Tween 80) 0.5% / water (w/v/v)","10","mL/kg","2018-10-16","8"
"S-00001","EX","S-00001-255","459","ACT-709478","250","mg/kg","SOLUTION","QD","ORAL GAVAGE","2939-AA/1","Methylcellulose 0.5% / polyoxyethylene sorbitan monooleate (Tween 80) 0.5% / water (w/v/v)","10","mL/kg","2018-10-17","9"
"S-00001","EX","S-00001-255","460","ACT-709478","250","mg/kg","SOLUTION","QD","ORAL GAVAGE","2939-AA/1","Methylcellulose 0.5% / polyoxyethylene sorbitan monooleate (Tween 80) 0.5% / water (w/v/v)","10","mL/kg","2018-10-18","10"
"S-00001","EX","S-00001-255","461","ACT-709478","250","mg/kg","SOLUTION","QD","ORAL GAVAGE","2939-AA/1","Methylcellulose 0.5% / polyoxyethylene sorbitan monooleate (Tween 80) 0.5% / water (w/v/v)","10","mL/kg","2018-10-19","11"
"S-00001","EX","S-00001-255","462","ACT-709478","250","mg/kg","SOLUTION","QD","ORAL GAVAGE","2939-AA/1","Methylcellulose 0.5% / polyoxyethylene sorbitan monooleate (Tween 80) 0.5% / water (w/v/v)","10","mL/kg","2018-10-20","12"
"S-00001","EX","S-00001-255","463","ACT-709478","250","mg/kg","SOLUTION","QD","ORAL GAVAGE","2939-AA/1","Methylcellulose 0.5% / polyoxyethylene sorbitan monooleate (Tween 80) 0.5% / water (w/v/v)","10","mL/kg","2018-10-21","13"
"S-00001","EX","S-00001-255","464","ACT-709478","250","mg/kg","SOLUTION","QD","ORAL GAVAGE","2939-AA/1","Methylcellulose 0.5% / polyoxyethylene sorbitan monooleate (Tween 80) 0.5% / water (w/v/v)","10","mL/kg","2018-10-22","14"
"S-00001","EX","S-00001-255","465","ACT-709478","250","mg/kg","SOLUTION","QD","ORAL GAVAGE","2939-AA/1","Methylcellulose 0.5% / polyoxyethylene sorbitan monooleate (Tween 80) 0.5% / water (w/v/v)","10","mL/kg","2018-10-23","15"
"S-00001","EX","S-00001-255","466","ACT-709478","250","mg/kg","SOLUTION","QD","ORAL GAVAGE","2939-AA/1","Methylcellulose 0.5% / polyoxyethylene sorbitan monooleate (Tween 80) 0.5% / water (w/v/v)","10","mL/kg","2018-10-24","16"
"S-00001","EX","S-00001-255","467","ACT-709478","250","mg/kg","SOLUTION","QD","ORAL GAVAGE","2939-AA/1","Methylcellulose 0.5% / polyoxyethylene sorbitan monooleate (Tween 80) 0.5% / water (w/v/v)","10","mL/kg","2018-10-25","17"
"S-00001","EX","S-00001-255","468","ACT-709478","250","mg/kg","SOLUTION","QD","ORAL GAVAGE","2939-AA/1","Methylcellulose 0.5% / polyoxyethylene sorbitan monooleate (Tween 80) 0.5% / water (w/v/v)","10","mL/kg","2018-10-26","18"
"S-00001","EX","S-00001-255","469","ACT-709478","250","mg/kg","SOLUTION","QD","ORAL GAVAGE","2939-AA/1","Methylcellulose 0.5% / polyoxyethylene sorbitan monooleate (Tween 80) 0.5% / water (w/v/v)","10","mL/kg","2018-10-27","19"
"S-00001","EX","S-00001-255","470","ACT-709478","250","mg/kg","SOLUTION","QD","ORAL GAVAGE","2939-AA/1","Methylcellulose 0.5% / polyoxyethylene sorbitan monooleate (Tween 80) 0.5% / water (w/v/v)","10","mL/kg","2018-10-28","20"
"S-00001","EX","S-00001-255","471","ACT-709478","250","mg/kg","SOLUTION","QD","ORAL GAVAGE","2939-AA/1","Methylcellulose 0.5% / polyoxyethylene sorbitan monooleate (Tween 80) 0.5% / water (w/v/v)","10","mL/kg","2018-10-29","21"
"S-00001","EX","S-00001-255","472","ACT-709478","250","mg/kg","SOLUTION","QD","ORAL GAVAGE","2939-AA/1","Methylcellulose 0.5% / polyoxyethylene sorbitan monooleate (Tween 80) 0.5% / water (w/v/v)","10","mL/kg","2018-10-30","22"
"S-00001","EX","S-00001-255","473","ACT-709478","250","mg/kg","SOLUTION","QD","ORAL GAVAGE","2939-AA/1","Methylcellulose 0.5% / polyoxyethylene sorbitan monooleate (Tween 80) 0.5% / water (w/v/v)","10","mL/kg","2018-10-31","23"
"S-00001","EX","S-00001-255","474","ACT-709478","250","mg/kg","SOLUTION","QD","ORAL GAVAGE","2939-AA/1","Methylcellulose 0.5% / polyoxyethylene sorbitan monooleate (Tween 80) 0.5% / water (w/v/v)","10","mL/kg","2018-11-01","24"
"S-00001","EX","S-00001-255","475","ACT-709478","250","mg/kg","SOLUTION","QD","ORAL GAVAGE","2939-AA/1","Methylcellulose 0.5% / polyoxyethylene sorbitan monooleate (Tween 80) 0.5% / water (w/v/v)","10","mL/kg","2018-11-02","25"
"S-00001","EX","S-00001-255","476","ACT-709478","250","mg/kg","SOLUTION","QD","ORAL GAVAGE","2939-AA/1","Methylcellulose 0.5% / polyoxyethylene sorbitan monooleate (Tween 80) 0.5% / water (w/v/v)","10","mL/kg","2018-11-03","26"
"S-00001","EX","S-00001-255","477","ACT-709478","250","mg/kg","SOLUTION","QD","ORAL GAVAGE","2939-AA/1","Methylcellulose 0.5% / polyoxyethylene sorbitan monooleate (Tween 80) 0.5% / water (w/v/v)","10","mL/kg","2018-11-04","27"
"S-00001","EX","S-00001-255","478","ACT-709478","250","mg/kg","SOLUTION","QD","ORAL GAVAGE","2939-AA/1","Methylcellulose 0.5% / polyoxyethylene sorbitan monooleate (Tween 80) 0.5% / water (w/v/v)","10","mL/kg","2018-11-05","28"
"S-00001","EX","S-00001-255","479","ACT-709478","250","mg/kg","SOLUTION","QD","ORAL GAVAGE","2939-AA/1","Methylcellulose 0.5% / polyoxyethylene sorbitan monooleate (Tween 80) 0.5% / water (w/v/v)","10","mL/kg","2018-11-06","29"
"S-00001","EX","S-00001-255","480","ACT-709478","250","mg/kg","SOLUTION","QD","ORAL GAVAGE","2939-AA/1","Methylcellulose 0.5% / polyoxyethylene sorbitan monooleate (Tween 80) 0.5% / water (w/v/v)","10","mL/kg","2018-11-07","30"
"S-00001","EX","S-00001-255","481","ACT-709478","250","mg/kg","SOLUTION","QD","ORAL GAVAGE","2939-AA/1","Methylcellulose 0.5% / polyoxyethylene sorbitan monooleate (Tween 80) 0.5% / water (w/v/v)","10","mL/kg","2018-11-08","31"
"S-00001","EX","S-00001-255","482","ACT-709478","250","mg/kg","SOLUTION","QD","ORAL GAVAGE","2939-AA/1","Methylcellulose 0.5% / polyoxyethylene sorbitan monooleate (Tween 80) 0.5% / water (w/v/v)","10","mL/kg","2018-11-09","32"
"S-00001","EX","S-00001-255","483","ACT-709478","250","mg/kg","SOLUTION","QD","ORAL GAVAGE","2939-AA/1","Methylcellulose 0.5% / polyoxyethylene sorbitan monooleate (Tween 80) 0.5% / water (w/v/v)","10","mL/kg","2018-11-10","33"
"S-00001","EX","S-00001-255","484","ACT-709478","250","mg/kg","SOLUTION","QD","ORAL GAVAGE","2939-AA/1","Methylcellulose 0.5% / polyoxyethylene sorbitan monooleate (Tween 80) 0.5% / water (w/v/v)","10","mL/kg","2018-11-11","34"
"S-00001","EX","S-00001-255","485","ACT-709478","250","mg/kg","SOLUTION","QD","ORAL GAVAGE","2939-AA/1","Methylcellulose 0.5% / polyoxyethylene sorbitan monooleate (Tween 80) 0.5% / water (w/v/v)","10","mL/kg","2018-11-12","35"
"S-00001","EX","S-00001-255","486","ACT-709478","250","mg/kg","SOLUTION","QD","ORAL GAVAGE","2939-AA/1","Methylcellulose 0.5% / polyoxyethylene sorbitan monooleate (Tween 80) 0.5% / water (w/v/v)","10","mL/kg","2018-11-13","36"
"S-00001","EX","S-00001-255","487","ACT-709478","250","mg/kg","SOLUTION","QD","ORAL GAVAGE","2939-AA/1","Methylcellulose 0.5% / polyoxyethylene sorbitan monooleate (Tween 80) 0.5% / water (w/v/v)","10","mL/kg","2018-11-14","37"
"S-00001","EX","S-00001-255","488","ACT-709478","250","mg/kg","SOLUTION","QD","ORAL GAVAGE","2939-AA/1","Methylcellulose 0.5% / polyoxyethylene sorbitan monooleate (Tween 80) 0.5% / water (w/v/v)","10","mL/kg","2018-11-15","38"
"S-00001","EX","S-00001-255","489","ACT-709478","250","mg/kg","SOLUTION","QD","ORAL GAVAGE","2939-AA/1","Methylcellulose 0.5% / polyoxyethylene sorbitan monooleate (Tween 80) 0.5% / water (w/v/v)","10","mL/kg","2018-11-16","39"
"S-00001","EX","S-00001-255","490","ACT-709478","250","mg/kg","SOLUTION","QD","ORAL GAVAGE","2939-AA/1","Methylcellulose 0.5% / polyoxyethylene sorbitan monooleate (Tween 80) 0.5% / water (w/v/v)","10","mL/kg","2018-11-17","40"
"S-00001","EX","S-00001-255","491","ACT-709478","250","mg/kg","SOLUTION","QD","ORAL GAVAGE","2939-AA/1","Methylcellulose 0.5% / polyoxyethylene sorbitan monooleate (Tween 80) 0.5% / water (w/v/v)","10","mL/kg","2018-11-18","41"
"S-00001","EX","S-00001-255","492","ACT-709478","250","mg/kg","SOLUTION","QD","ORAL GAVAGE","2939-AA/1","Methylcellulose 0.5% / polyoxyethylene sorbitan monooleate (Tween 80) 0.5% / water (w/v/v)","10","mL/kg","2018-11-19","42"
"S-00001","EX","S-00001-255","493","ACT-709478","250","mg/kg","SOLUTION","QD","ORAL GAVAGE","2939-AA/1","Methylcellulose 0.5% / polyoxyethylene sorbitan monooleate (Tween 80) 0.5% / water (w/v/v)","10","mL/kg","2018-11-20","43"
"S-00001","EX","S-00001-255","494","ACT-709478","250","mg/kg","SOLUTION","QD","ORAL GAVAGE","2939-AA/1","Methylcellulose 0.5% / polyoxyethylene sorbitan monooleate (Tween 80) 0.5% / water (w/v/v)","10","mL/kg","2018-11-21","44"
"S-00001","EX","S-00001-255","495","ACT-709478","250","mg/kg","SOLUTION","QD","ORAL GAVAGE","2939-AA/1","Methylcellulose 0.5% / polyoxyethylene sorbitan monooleate (Tween 80) 0.5% / water (w/v/v)","10","mL/kg","2018-11-22","45"
"S-00001","EX","S-00001-256","496","ACT-709478","250","mg/kg","SOLUTION","QD","ORAL GAVAGE","2939-AA/1","Methylcellulose 0.5% / polyoxyethylene sorbitan monooleate (Tween 80) 0.5% / water (w/v/v)","10","mL/kg","2018-10-09","1"
"S-00001","EX","S-00001-256","497","ACT-709478","250","mg/kg","SOLUTION","QD","ORAL GAVAGE","2939-AA/1","Methylcellulose 0.5% / polyoxyethylene sorbitan monooleate (Tween 80) 0.5% / water (w/v/v)","10","mL/kg","2018-10-10","2"
"S-00001","EX","S-00001-256","498","ACT-709478","250","mg/kg","SOLUTION","QD","ORAL GAVAGE","2939-AA/1","Methylcellulose 0.5% / polyoxyethylene sorbitan monooleate (Tween 80) 0.5% / water (w/v/v)","10","mL/kg","2018-10-11","3"
"S-00001","EX","S-00001-256","499","ACT-709478","250","mg/kg","SOLUTION","QD","ORAL GAVAGE","2939-AA/1","Methylcellulose 0.5% / polyoxyethylene sorbitan monooleate (Tween 80) 0.5% / water (w/v/v)","10","mL/kg","2018-10-12","4"
"S-00001","EX","S-00001-256","500","ACT-709478","250","mg/kg","SOLUTION","QD","ORAL GAVAGE","2939-AA/1","Methylcellulose 0.5% / polyoxyethylene sorbitan monooleate (Tween 80) 0.5% / water (w/v/v)","10","mL/kg","2018-10-13","5"
"S-00001","EX","S-00001-256","501","ACT-709478","250","mg/kg","SOLUTION","QD","ORAL GAVAGE","2939-AA/1","Methylcellulose 0.5% / polyoxyethylene sorbitan monooleate (Tween 80) 0.5% / water (w/v/v)","10","mL/kg","2018-10-14","6"
"S-00001","EX","S-00001-256","502","ACT-709478","250","mg/kg","SOLUTION","QD","ORAL GAVAGE","2939-AA/1","Methylcellulose 0.5% / polyoxyethylene sorbitan monooleate (Tween 80) 0.5% / water (w/v/v)","10","mL/kg","2018-10-15","7"
"S-00001","EX","S-00001-256","503","ACT-709478","250","mg/kg","SOLUTION","QD","ORAL GAVAGE","2939-AA/1","Methylcellulose 0.5% / polyoxyethylene sorbitan monooleate (Tween 80) 0.5% / water (w/v/v)","10","mL/kg","2018-10-16","8"
"S-00001","EX","S-00001-256","504","ACT-709478","250","mg/kg","SOLUTION","QD","ORAL GAVAGE","2939-AA/1","Methylcellulose 0.5% / polyoxyethylene sorbitan monooleate (Tween 80) 0.5% / water (w/v/v)","10","mL/kg","2018-10-17","9"
"S-00001","EX","S-00001-256","505","ACT-709478","250","mg/kg","SOLUTION","QD","ORAL GAVAGE","2939-AA/1","Methylcellulose 0.5% / polyoxyethylene sorbitan monooleate (Tween 80) 0.5% / water (w/v/v)","10","mL/kg","2018-10-18","10"
"S-00001","EX","S-00001-256","506","ACT-709478","250","mg/kg","SOLUTION","QD","ORAL GAVAGE","2939-AA/1","Methylcellulose 0.5% / polyoxyethylene sorbitan monooleate (Tween 80) 0.5% / water (w/v/v)","10","mL/kg","2018-10-19","11"
"S-00001","EX","S-00001-256","507","ACT-709478","250","mg/kg","SOLUTION","QD","ORAL GAVAGE","2939-AA/1","Methylcellulose 0.5% / polyoxyethylene sorbitan monooleate (Tween 80) 0.5% / water (w/v/v)","10","mL/kg","2018-10-20","12"
"S-00001","EX","S-00001-256","508","ACT-709478","250","mg/kg","SOLUTION","QD","ORAL GAVAGE","2939-AA/1","Methylcellulose 0.5% / polyoxyethylene sorbitan monooleate (Tween 80) 0.5% / water (w/v/v)","10","mL/kg","2018-10-21","13"
"S-00001","EX","S-00001-256","509","ACT-709478","250","mg/kg","SOLUTION","QD","ORAL GAVAGE","2939-AA/1","Methylcellulose 0.5% / polyoxyethylene sorbitan monooleate (Tween 80) 0.5% / water (w/v/v)","10","mL/kg","2018-10-22","14"
"S-00001","EX","S-00001-256","510","ACT-709478","250","mg/kg","SOLUTION","QD","ORAL GAVAGE","2939-AA/1","Methylcellulose 0.5% / polyoxyethylene sorbitan monooleate (Tween 80) 0.5% / water (w/v/v)","10","mL/kg","2018-10-23","15"
"S-00001","EX","S-00001-256","511","ACT-709478","250","mg/kg","SOLUTION","QD","ORAL GAVAGE","2939-AA/1","Methylcellulose 0.5% / polyoxyethylene sorbitan monooleate (Tween 80) 0.5% / water (w/v/v)","10","mL/kg","2018-10-24","16"
"S-00001","EX","S-00001-256","512","ACT-709478","250","mg/kg","SOLUTION","QD","ORAL GAVAGE","2939-AA/1","Methylcellulose 0.5% / polyoxyethylene sorbitan monooleate (Tween 80) 0.5% / water (w/v/v)","10","mL/kg","2018-10-25","17"
"S-00001","EX","S-00001-256","513","ACT-709478","250","mg/kg","SOLUTION","QD","ORAL GAVAGE","2939-AA/1","Methylcellulose 0.5% / polyoxyethylene sorbitan monooleate (Tween 80) 0.5% / water (w/v/v)","10","mL/kg","2018-10-26","18"
"S-00001","EX","S-00001-256","514","ACT-709478","250","mg/kg","SOLUTION","QD","ORAL GAVAGE","2939-AA/1","Methylcellulose 0.5% / polyoxyethylene sorbitan monooleate (Tween 80) 0.5% / water (w/v/v)","10","mL/kg","2018-10-27","19"
"S-00001","EX","S-00001-256","515","ACT-709478","250","mg/kg","SOLUTION","QD","ORAL GAVAGE","2939-AA/1","Methylcellulose 0.5% / polyoxyethylene sorbitan monooleate (Tween 80) 0.5% / water (w/v/v)","10","mL/kg","2018-10-28","20"
"S-00001","EX","S-00001-256","516","ACT-709478","250","mg/kg","SOLUTION","QD","ORAL GAVAGE","2939-AA/1","Methylcellulose 0.5% / polyoxyethylene sorbitan monooleate (Tween 80) 0.5% / water (w/v/v)","10","mL/kg","2018-10-29","21"
"S-00001","EX","S-00001-256","517","ACT-709478","250","mg/kg","SOLUTION","QD","ORAL GAVAGE","2939-AA/1","Methylcellulose 0.5% / polyoxyethylene sorbitan monooleate (Tween 80) 0.5% / water (w/v/v)","10","mL/kg","2018-10-30","22"
"S-00001","EX","S-00001-256","518","ACT-709478","250","mg/kg","SOLUTION","QD","ORAL GAVAGE","2939-AA/1","Methylcellulose 0.5% / polyoxyethylene sorbitan monooleate (Tween 80) 0.5% / water (w/v/v)","10","mL/kg","2018-10-31","23"
"S-00001","EX","S-00001-256","519","ACT-709478","250","mg/kg","SOLUTION","QD","ORAL GAVAGE","2939-AA/1","Methylcellulose 0.5% / polyoxyethylene sorbitan monooleate (Tween 80) 0.5% / water (w/v/v)","10","mL/kg","2018-11-01","24"
"S-00001","EX","S-00001-256","520","ACT-709478","250","mg/kg","SOLUTION","QD","ORAL GAVAGE","2939-AA/1","Methylcellulose 0.5% / polyoxyethylene sorbitan monooleate (Tween 80) 0.5% / water (w/v/v)","10","mL/kg","2018-11-02","25"
"S-00001","EX","S-00001-256","521","ACT-709478","250","mg/kg","SOLUTION","QD","ORAL GAVAGE","2939-AA/1","Methylcellulose 0.5% / polyoxyethylene sorbitan monooleate (Tween 80) 0.5% / water (w/v/v)","10","mL/kg","2018-11-03","26"
"S-00001","EX","S-00001-256","522","ACT-709478","250","mg/kg","SOLUTION","QD","ORAL GAVAGE","2939-AA/1","Methylcellulose 0.5% / polyoxyethylene sorbitan monooleate (Tween 80) 0.5% / water (w/v/v)","10","mL/kg","2018-11-04","27"
"S-00001","EX","S-00001-256","523","ACT-709478","250","mg/kg","SOLUTION","QD","ORAL GAVAGE","2939-AA/1","Methylcellulose 0.5% / polyoxyethylene sorbitan monooleate (Tween 80) 0.5% / water (w/v/v)","10","mL/kg","2018-11-05","28"
"S-00001","EX","S-00001-256","524","ACT-709478","250","mg/kg","SOLUTION","QD","ORAL GAVAGE","2939-AA/1","Methylcellulose 0.5% / polyoxyethylene sorbitan monooleate (Tween 80) 0.5% / water (w/v/v)","10","mL/kg","2018-11-06","29"
"S-00001","EX","S-00001-256","525","ACT-709478","250","mg/kg","SOLUTION","QD","ORAL GAVAGE","2939-AA/1","Methylcellulose 0.5% / polyoxyethylene sorbitan monooleate (Tween 80) 0.5% / water (w/v/v)","10","mL/kg","2018-11-07","30"
"S-00001","EX","S-00001-256","526","ACT-709478","250","mg/kg","SOLUTION","QD","ORAL GAVAGE","2939-AA/1","Methylcellulose 0.5% / polyoxyethylene sorbitan monooleate (Tween 80) 0.5% / water (w/v/v)","10","mL/kg","2018-11-08","31"
"S-00001","EX","S-00001-256","527","ACT-709478","250","mg/kg","SOLUTION","QD","ORAL GAVAGE","2939-AA/1","Methylcellulose 0.5% / polyoxyethylene sorbitan monooleate (Tween 80) 0.5% / water (w/v/v)","10","mL/kg","2018-11-09","32"
"S-00001","EX","S-00001-256","528","ACT-709478","250","mg/kg","SOLUTION","QD","ORAL GAVAGE","2939-AA/1","Methylcellulose 0.5% / polyoxyethylene sorbitan monooleate (Tween 80) 0.5% / water (w/v/v)","10","mL/kg","2018-11-10","33"
"S-00001","EX","S-00001-256","529","ACT-709478","250","mg/kg","SOLUTION","QD","ORAL GAVAGE","2939-AA/1","Methylcellulose 0.5% / polyoxyethylene sorbitan monooleate (Tween 80) 0.5% / water (w/v/v)","10","mL/kg","2018-11-11","34"
"S-00001","EX","S-00001-256","530","ACT-709478","250","mg/kg","SOLUTION","QD","ORAL GAVAGE","2939-AA/1","Methylcellulose 0.5% / polyoxyethylene sorbitan monooleate (Tween 80) 0.5% / water (w/v/v)","10","mL/kg","2018-11-12","35"
"S-00001","EX","S-00001-256","531","ACT-709478","250","mg/kg","SOLUTION","QD","ORAL GAVAGE","2939-AA/1","Methylcellulose 0.5% / polyoxyethylene sorbitan monooleate (Tween 80) 0.5% / water (w/v/v)","10","mL/kg","2018-11-13","36"
"S-00001","EX","S-00001-256","532","ACT-709478","250","mg/kg","SOLUTION","QD","ORAL GAVAGE","2939-AA/1","Methylcellulose 0.5% / polyoxyethylene sorbitan monooleate (Tween 80) 0.5% / water (w/v/v)","10","mL/kg","2018-11-14","37"
"S-00001","EX","S-00001-256","533","ACT-709478","250","mg/kg","SOLUTION","QD","ORAL GAVAGE","2939-AA/1","Methylcellulose 0.5% / polyoxyethylene sorbitan monooleate (Tween 80) 0.5% / water (w/v/v)","10","mL/kg","2018-11-15","38"
"S-00001","EX","S-00001-256","534","ACT-709478","250","mg/kg","SOLUTION","QD","ORAL GAVAGE","2939-AA/1","Methylcellulose 0.5% / polyoxyethylene sorbitan monooleate (Tween 80) 0.5% / water (w/v/v)","10","mL/kg","2018-11-16","39"
"S-00001","EX","S-00001-256","535","ACT-709478","250","mg/kg","SOLUTION","QD","ORAL GAVAGE","2939-AA/1","Methylcellulose 0.5% / polyoxyethylene sorbitan monooleate (Tween 80) 0.5% / water (w/v/v)","10","mL/kg","2018-11-17","40"
"S-00001","EX","S-00001-256","536","ACT-709478","250","mg/kg","SOLUTION","QD","ORAL GAVAGE","2939-AA/1","Methylcellulose 0.5% / polyoxyethylene sorbitan monooleate (Tween 80) 0.5% / water (w/v/v)","10","mL/kg","2018-11-18","41"
"S-00001","EX","S-00001-256","537","ACT-709478","250","mg/kg","SOLUTION","QD","ORAL GAVAGE","2939-AA/1","Methylcellulose 0.5% / polyoxyethylene sorbitan monooleate (Tween 80) 0.5% / water (w/v/v)","10","mL/kg","2018-11-19","42"
"S-00001","EX","S-00001-256","538","ACT-709478","250","mg/kg","SOLUTION","QD","ORAL GAVAGE","2939-AA/1","Methylcellulose 0.5% / polyoxyethylene sorbitan monooleate (Tween 80) 0.5% / water (w/v/v)","10","mL/kg","2018-11-20","43"
"S-00001","EX","S-00001-256","539","ACT-709478","250","mg/kg","SOLUTION","QD","ORAL GAVAGE","2939-AA/1","Methylcellulose 0.5% / polyoxyethylene sorbitan monooleate (Tween 80) 0.5% / water (w/v/v)","10","mL/kg","2018-11-21","44"
"S-00001","EX","S-00001-256","540","ACT-709478","250","mg/kg","SOLUTION","QD","ORAL GAVAGE","2939-AA/1","Methylcellulose 0.5% / polyoxyethylene sorbitan monooleate (Tween 80) 0.5% / water (w/v/v)","10","mL/kg","2018-11-22","45"
"S-00001","EX","S-00001-351","541","ACT-709478","250","mg/kg","SOLUTION","QD","ORAL GAVAGE","2939-AA/1","Methylcellulose 0.5% / polyoxyethylene sorbitan monooleate (Tween 80) 0.5% / water (w/v/v)","10","mL/kg","2018-10-09","1"
"S-00001","EX","S-00001-351","542","ACT-709478","250","mg/kg","SOLUTION","QD","ORAL GAVAGE","2939-AA/1","Methylcellulose 0.5% / polyoxyethylene sorbitan monooleate (Tween 80) 0.5% / water (w/v/v)","10","mL/kg","2018-10-10","2"
"S-00001","EX","S-00001-351","543","ACT-709478","250","mg/kg","SOLUTION","QD","ORAL GAVAGE","2939-AA/1","Methylcellulose 0.5% / polyoxyethylene sorbitan monooleate (Tween 80) 0.5% / water (w/v/v)","10","mL/kg","2018-10-11","3"
"S-00001","EX","S-00001-351","544","ACT-709478","250","mg/kg","SOLUTION","QD","ORAL GAVAGE","2939-AA/1","Methylcellulose 0.5% / polyoxyethylene sorbitan monooleate (Tween 80) 0.5% / water (w/v/v)","10","mL/kg","2018-10-12","4"
"S-00001","EX","S-00001-351","545","ACT-709478","250","mg/kg","SOLUTION","QD","ORAL GAVAGE","2939-AA/1","Methylcellulose 0.5% / polyoxyethylene sorbitan monooleate (Tween 80) 0.5% / water (w/v/v)","10","mL/kg","2018-10-13","5"
"S-00001","EX","S-00001-351","546","ACT-709478","250","mg/kg","SOLUTION","QD","ORAL GAVAGE","2939-AA/1","Methylcellulose 0.5% / polyoxyethylene sorbitan monooleate (Tween 80) 0.5% / water (w/v/v)","10","mL/kg","2018-10-14","6"
"S-00001","EX","S-00001-351","547","ACT-709478","250","mg/kg","SOLUTION","QD","ORAL GAVAGE","2939-AA/1","Methylcellulose 0.5% / polyoxyethylene sorbitan monooleate (Tween 80) 0.5% / water (w/v/v)","10","mL/kg","2018-10-15","7"
"S-00001","EX","S-00001-351","548","ACT-709478","250","mg/kg","SOLUTION","QD","ORAL GAVAGE","2939-AA/1","Methylcellulose 0.5% / polyoxyethylene sorbitan monooleate (Tween 80) 0.5% / water (w/v/v)","10","mL/kg","2018-10-16","8"
"S-00001","EX","S-00001-351","549","ACT-709478","250","mg/kg","SOLUTION","QD","ORAL GAVAGE","2939-AA/1","Methylcellulose 0.5% / polyoxyethylene sorbitan monooleate (Tween 80) 0.5% / water (w/v/v)","10","mL/kg","2018-10-17","9"
"S-00001","EX","S-00001-351","550","ACT-709478","250","mg/kg","SOLUTION","QD","ORAL GAVAGE","2939-AA/1","Methylcellulose 0.5% / polyoxyethylene sorbitan monooleate (Tween 80) 0.5% / water (w/v/v)","10","mL/kg","2018-10-18","10"
"S-00001","EX","S-00001-351","551","ACT-709478","250","mg/kg","SOLUTION","QD","ORAL GAVAGE","2939-AA/1","Methylcellulose 0.5% / polyoxyethylene sorbitan monooleate (Tween 80) 0.5% / water (w/v/v)","10","mL/kg","2018-10-19","11"
"S-00001","EX","S-00001-351","552","ACT-709478","250","mg/kg","SOLUTION","QD","ORAL GAVAGE","2939-AA/1","Methylcellulose 0.5% / polyoxyethylene sorbitan monooleate (Tween 80) 0.5% / water (w/v/v)","10","mL/kg","2018-10-20","12"
"S-00001","EX","S-00001-351","553","ACT-709478","250","mg/kg","SOLUTION","QD","ORAL GAVAGE","2939-AA/1","Methylcellulose 0.5% / polyoxyethylene sorbitan monooleate (Tween 80) 0.5% / water (w/v/v)","10","mL/kg","2018-10-21","13"
"S-00001","EX","S-00001-351","554","ACT-709478","250","mg/kg","SOLUTION","QD","ORAL GAVAGE","2939-AA/1","Methylcellulose 0.5% / polyoxyethylene sorbitan monooleate (Tween 80) 0.5% / water (w/v/v)","10","mL/kg","2018-10-22","14"
"S-00001","EX","S-00001-351","555","ACT-709478","250","mg/kg","SOLUTION","QD","ORAL GAVAGE","2939-AA/1","Methylcellulose 0.5% / polyoxyethylene sorbitan monooleate (Tween 80) 0.5% / water (w/v/v)","10","mL/kg","2018-10-23","15"
"S-00001","EX","S-00001-351","556","ACT-709478","250","mg/kg","SOLUTION","QD","ORAL GAVAGE","2939-AA/1","Methylcellulose 0.5% / polyoxyethylene sorbitan monooleate (Tween 80) 0.5% / water (w/v/v)","10","mL/kg","2018-10-24","16"
"S-00001","EX","S-00001-351","557","ACT-709478","250","mg/kg","SOLUTION","QD","ORAL GAVAGE","2939-AA/1","Methylcellulose 0.5% / polyoxyethylene sorbitan monooleate (Tween 80) 0.5% / water (w/v/v)","10","mL/kg","2018-10-25","17"
"S-00001","EX","S-00001-351","558","ACT-709478","250","mg/kg","SOLUTION","QD","ORAL GAVAGE","2939-AA/1","Methylcellulose 0.5% / polyoxyethylene sorbitan monooleate (Tween 80) 0.5% / water (w/v/v)","10","mL/kg","2018-10-26","18"
"S-00001","EX","S-00001-351","559","ACT-709478","250","mg/kg","SOLUTION","QD","ORAL GAVAGE","2939-AA/1","Methylcellulose 0.5% / polyoxyethylene sorbitan monooleate (Tween 80) 0.5% / water (w/v/v)","10","mL/kg","2018-10-27","19"
"S-00001","EX","S-00001-351","560","ACT-709478","250","mg/kg","SOLUTION","QD","ORAL GAVAGE","2939-AA/1","Methylcellulose 0.5% / polyoxyethylene sorbitan monooleate (Tween 80) 0.5% / water (w/v/v)","10","mL/kg","2018-10-28","20"
"S-00001","EX","S-00001-351","561","ACT-709478","250","mg/kg","SOLUTION","QD","ORAL GAVAGE","2939-AA/1","Methylcellulose 0.5% / polyoxyethylene sorbitan monooleate (Tween 80) 0.5% / water (w/v/v)","10","mL/kg","2018-10-29","21"
"S-00001","EX","S-00001-351","562","ACT-709478","250","mg/kg","SOLUTION","QD","ORAL GAVAGE","2939-AA/1","Methylcellulose 0.5% / polyoxyethylene sorbitan monooleate (Tween 80) 0.5% / water (w/v/v)","10","mL/kg","2018-10-30","22"
"S-00001","EX","S-00001-351","563","ACT-709478","250","mg/kg","SOLUTION","QD","ORAL GAVAGE","2939-AA/1","Methylcellulose 0.5% / polyoxyethylene sorbitan monooleate (Tween 80) 0.5% / water (w/v/v)","10","mL/kg","2018-10-31","23"
"S-00001","EX","S-00001-351","564","ACT-709478","250","mg/kg","SOLUTION","QD","ORAL GAVAGE","2939-AA/1","Methylcellulose 0.5% / polyoxyethylene sorbitan monooleate (Tween 80) 0.5% / water (w/v/v)","10","mL/kg","2018-11-01","24"
"S-00001","EX","S-00001-351","565","ACT-709478","250","mg/kg","SOLUTION","QD","ORAL GAVAGE","2939-AA/1","Methylcellulose 0.5% / polyoxyethylene sorbitan monooleate (Tween 80) 0.5% / water (w/v/v)","10","mL/kg","2018-11-02","25"
"S-00001","EX","S-00001-351","566","ACT-709478","250","mg/kg","SOLUTION","QD","ORAL GAVAGE","2939-AA/1","Methylcellulose 0.5% / polyoxyethylene sorbitan monooleate (Tween 80) 0.5% / water (w/v/v)","10","mL/kg","2018-11-03","26"
"S-00001","EX","S-00001-351","567","ACT-709478","250","mg/kg","SOLUTION","QD","ORAL GAVAGE","2939-AA/1","Methylcellulose 0.5% / polyoxyethylene sorbitan monooleate (Tween 80) 0.5% / water (w/v/v)","10","mL/kg","2018-11-04","27"
"S-00001","EX","S-00001-351","568","ACT-709478","250","mg/kg","SOLUTION","QD","ORAL GAVAGE","2939-AA/1","Methylcellulose 0.5% / polyoxyethylene sorbitan monooleate (Tween 80) 0.5% / water (w/v/v)","10","mL/kg","2018-11-05","28"
"S-00001","EX","S-00001-351","569","ACT-709478","250","mg/kg","SOLUTION","QD","ORAL GAVAGE","2939-AA/1","Methylcellulose 0.5% / polyoxyethylene sorbitan monooleate (Tween 80) 0.5% / water (w/v/v)","10","mL/kg","2018-11-06","29"
"S-00001","EX","S-00001-351","570","ACT-709478","250","mg/kg","SOLUTION","QD","ORAL GAVAGE","2939-AA/1","Methylcellulose 0.5% / polyoxyethylene sorbitan monooleate (Tween 80) 0.5% / water (w/v/v)","10","mL/kg","2018-11-07","30"
"S-00001","EX","S-00001-351","571","ACT-709478","250","mg/kg","SOLUTION","QD","ORAL GAVAGE","2939-AA/1","Methylcellulose 0.5% / polyoxyethylene sorbitan monooleate (Tween 80) 0.5% / water (w/v/v)","10","mL/kg","2018-11-08","31"
"S-00001","EX","S-00001-351","572","ACT-709478","250","mg/kg","SOLUTION","QD","ORAL GAVAGE","2939-AA/1","Methylcellulose 0.5% / polyoxyethylene sorbitan monooleate (Tween 80) 0.5% / water (w/v/v)","10","mL/kg","2018-11-09","32"
"S-00001","EX","S-00001-351","573","ACT-709478","250","mg/kg","SOLUTION","QD","ORAL GAVAGE","2939-AA/1","Methylcellulose 0.5% / polyoxyethylene sorbitan monooleate (Tween 80) 0.5% / water (w/v/v)","10","mL/kg","2018-11-10","33"
"S-00001","EX","S-00001-351","574","ACT-709478","250","mg/kg","SOLUTION","QD","ORAL GAVAGE","2939-AA/1","Methylcellulose 0.5% / polyoxyethylene sorbitan monooleate (Tween 80) 0.5% / water (w/v/v)","10","mL/kg","2018-11-11","34"
"S-00001","EX","S-00001-351","575","ACT-709478","250","mg/kg","SOLUTION","QD","ORAL GAVAGE","2939-AA/1","Methylcellulose 0.5% / polyoxyethylene sorbitan monooleate (Tween 80) 0.5% / water (w/v/v)","10","mL/kg","2018-11-12","35"
"S-00001","EX","S-00001-351","576","ACT-709478","250","mg/kg","SOLUTION","QD","ORAL GAVAGE","2939-AA/1","Methylcellulose 0.5% / polyoxyethylene sorbitan monooleate (Tween 80) 0.5% / water (w/v/v)","10","mL/kg","2018-11-13","36"
"S-00001","EX","S-00001-351","577","ACT-709478","250","mg/kg","SOLUTION","QD","ORAL GAVAGE","2939-AA/1","Methylcellulose 0.5% / polyoxyethylene sorbitan monooleate (Tween 80) 0.5% / water (w/v/v)","10","mL/kg","2018-11-14","37"
"S-00001","EX","S-00001-351","578","ACT-709478","250","mg/kg","SOLUTION","QD","ORAL GAVAGE","2939-AA/1","Methylcellulose 0.5% / polyoxyethylene sorbitan monooleate (Tween 80) 0.5% / water (w/v/v)","10","mL/kg","2018-11-15","38"
"S-00001","EX","S-00001-351","579","ACT-709478","250","mg/kg","SOLUTION","QD","ORAL GAVAGE","2939-AA/1","Methylcellulose 0.5% / polyoxyethylene sorbitan monooleate (Tween 80) 0.5% / water (w/v/v)","10","mL/kg","2018-11-16","39"
"S-00001","EX","S-00001-351","580","ACT-709478","250","mg/kg","SOLUTION","QD","ORAL GAVAGE","2939-AA/1","Methylcellulose 0.5% / polyoxyethylene sorbitan monooleate (Tween 80) 0.5% / water (w/v/v)","10","mL/kg","2018-11-17","40"
"S-00001","EX","S-00001-351","581","ACT-709478","250","mg/kg","SOLUTION","QD","ORAL GAVAGE","2939-AA/1","Methylcellulose 0.5% / polyoxyethylene sorbitan monooleate (Tween 80) 0.5% / water (w/v/v)","10","mL/kg","2018-11-18","41"
"S-00001","EX","S-00001-351","582","ACT-709478","250","mg/kg","SOLUTION","QD","ORAL GAVAGE","2939-AA/1","Methylcellulose 0.5% / polyoxyethylene sorbitan monooleate (Tween 80) 0.5% / water (w/v/v)","10","mL/kg","2018-11-19","42"
"S-00001","EX","S-00001-351","583","ACT-709478","250","mg/kg","SOLUTION","QD","ORAL GAVAGE","2939-AA/1","Methylcellulose 0.5% / polyoxyethylene sorbitan monooleate (Tween 80) 0.5% / water (w/v/v)","10","mL/kg","2018-11-20","43"
"S-00001","EX","S-00001-351","584","ACT-709478","250","mg/kg","SOLUTION","QD","ORAL GAVAGE","2939-AA/1","Methylcellulose 0.5% / polyoxyethylene sorbitan monooleate (Tween 80) 0.5% / water (w/v/v)","10","mL/kg","2018-11-21","44"
"S-00001","EX","S-00001-351","585","ACT-709478","250","mg/kg","SOLUTION","QD","ORAL GAVAGE","2939-AA/1","Methylcellulose 0.5% / polyoxyethylene sorbitan monooleate (Tween 80) 0.5% / water (w/v/v)","10","mL/kg","2018-11-22","45"
"S-00001","EX","S-00001-352","586","ACT-709478","250","mg/kg","SOLUTION","QD","ORAL GAVAGE","2939-AA/1","Methylcellulose 0.5% / polyoxyethylene sorbitan monooleate (Tween 80) 0.5% / water (w/v/v)","10","mL/kg","2018-10-09","1"
"S-00001","EX","S-00001-352","587","ACT-709478","250","mg/kg","SOLUTION","QD","ORAL GAVAGE","2939-AA/1","Methylcellulose 0.5% / polyoxyethylene sorbitan monooleate (Tween 80) 0.5% / water (w/v/v)","10","mL/kg","2018-10-10","2"
"S-00001","EX","S-00001-352","588","ACT-709478","250","mg/kg","SOLUTION","QD","ORAL GAVAGE","2939-AA/1","Methylcellulose 0.5% / polyoxyethylene sorbitan monooleate (Tween 80) 0.5% / water (w/v/v)","10","mL/kg","2018-10-11","3"
"S-00001","EX","S-00001-352","589","ACT-709478","250","mg/kg","SOLUTION","QD","ORAL GAVAGE","2939-AA/1","Methylcellulose 0.5% / polyoxyethylene sorbitan monooleate (Tween 80) 0.5% / water (w/v/v)","10","mL/kg","2018-10-12","4"
"S-00001","EX","S-00001-352","590","ACT-709478","250","mg/kg","SOLUTION","QD","ORAL GAVAGE","2939-AA/1","Methylcellulose 0.5% / polyoxyethylene sorbitan monooleate (Tween 80) 0.5% / water (w/v/v)","10","mL/kg","2018-10-13","5"
"S-00001","EX","S-00001-352","591","ACT-709478","250","mg/kg","SOLUTION","QD","ORAL GAVAGE","2939-AA/1","Methylcellulose 0.5% / polyoxyethylene sorbitan monooleate (Tween 80) 0.5% / water (w/v/v)","10","mL/kg","2018-10-14","6"
"S-00001","EX","S-00001-352","592","ACT-709478","250","mg/kg","SOLUTION","QD","ORAL GAVAGE","2939-AA/1","Methylcellulose 0.5% / polyoxyethylene sorbitan monooleate (Tween 80) 0.5% / water (w/v/v)","10","mL/kg","2018-10-15","7"
"S-00001","EX","S-00001-352","593","ACT-709478","250","mg/kg","SOLUTION","QD","ORAL GAVAGE","2939-AA/1","Methylcellulose 0.5% / polyoxyethylene sorbitan monooleate (Tween 80) 0.5% / water (w/v/v)","10","mL/kg","2018-10-16","8"
"S-00001","EX","S-00001-352","594","ACT-709478","250","mg/kg","SOLUTION","QD","ORAL GAVAGE","2939-AA/1","Methylcellulose 0.5% / polyoxyethylene sorbitan monooleate (Tween 80) 0.5% / water (w/v/v)","10","mL/kg","2018-10-17","9"
"S-00001","EX","S-00001-352","595","ACT-709478","250","mg/kg","SOLUTION","QD","ORAL GAVAGE","2939-AA/1","Methylcellulose 0.5% / polyoxyethylene sorbitan monooleate (Tween 80) 0.5% / water (w/v/v)","10","mL/kg","2018-10-18","10"
"S-00001","EX","S-00001-352","596","ACT-709478","250","mg/kg","SOLUTION","QD","ORAL GAVAGE","2939-AA/1","Methylcellulose 0.5% / polyoxyethylene sorbitan monooleate (Tween 80) 0.5% / water (w/v/v)","10","mL/kg","2018-10-19","11"
"S-00001","EX","S-00001-352","597","ACT-709478","250","mg/kg","SOLUTION","QD","ORAL GAVAGE","2939-AA/1","Methylcellulose 0.5% / polyoxyethylene sorbitan monooleate (Tween 80) 0.5% / water (w/v/v)","10","mL/kg","2018-10-20","12"
"S-00001","EX","S-00001-352","598","ACT-709478","250","mg/kg","SOLUTION","QD","ORAL GAVAGE","2939-AA/1","Methylcellulose 0.5% / polyoxyethylene sorbitan monooleate (Tween 80) 0.5% / water (w/v/v)","10","mL/kg","2018-10-21","13"
"S-00001","EX","S-00001-352","599","ACT-709478","250","mg/kg","SOLUTION","QD","ORAL GAVAGE","2939-AA/1","Methylcellulose 0.5% / polyoxyethylene sorbitan monooleate (Tween 80) 0.5% / water (w/v/v)","10","mL/kg","2018-10-22","14"
"S-00001","EX","S-00001-352","600","ACT-709478","250","mg/kg","SOLUTION","QD","ORAL GAVAGE","2939-AA/1","Methylcellulose 0.5% / polyoxyethylene sorbitan monooleate (Tween 80) 0.5% / water (w/v/v)","10","mL/kg","2018-10-23","15"
"S-00001","EX","S-00001-352","601","ACT-709478","250","mg/kg","SOLUTION","QD","ORAL GAVAGE","2939-AA/1","Methylcellulose 0.5% / polyoxyethylene sorbitan monooleate (Tween 80) 0.5% / water (w/v/v)","10","mL/kg","2018-10-24","16"
"S-00001","EX","S-00001-352","602","ACT-709478","250","mg/kg","SOLUTION","QD","ORAL GAVAGE","2939-AA/1","Methylcellulose 0.5% / polyoxyethylene sorbitan monooleate (Tween 80) 0.5% / water (w/v/v)","10","mL/kg","2018-10-25","17"
"S-00001","EX","S-00001-352","603","ACT-709478","250","mg/kg","SOLUTION","QD","ORAL GAVAGE","2939-AA/1","Methylcellulose 0.5% / polyoxyethylene sorbitan monooleate (Tween 80) 0.5% / water (w/v/v)","10","mL/kg","2018-10-26","18"
"S-00001","EX","S-00001-352","604","ACT-709478","250","mg/kg","SOLUTION","QD","ORAL GAVAGE","2939-AA/1","Methylcellulose 0.5% / polyoxyethylene sorbitan monooleate (Tween 80) 0.5% / water (w/v/v)","10","mL/kg","2018-10-27","19"
"S-00001","EX","S-00001-352","605","ACT-709478","250","mg/kg","SOLUTION","QD","ORAL GAVAGE","2939-AA/1","Methylcellulose 0.5% / polyoxyethylene sorbitan monooleate (Tween 80) 0.5% / water (w/v/v)","10","mL/kg","2018-10-28","20"
"S-00001","EX","S-00001-352","606","ACT-709478","250","mg/kg","SOLUTION","QD","ORAL GAVAGE","2939-AA/1","Methylcellulose 0.5% / polyoxyethylene sorbitan monooleate (Tween 80) 0.5% / water (w/v/v)","10","mL/kg","2018-10-29","21"
"S-00001","EX","S-00001-352","607","ACT-709478","250","mg/kg","SOLUTION","QD","ORAL GAVAGE","2939-AA/1","Methylcellulose 0.5% / polyoxyethylene sorbitan monooleate (Tween 80) 0.5% / water (w/v/v)","10","mL/kg","2018-10-30","22"
"S-00001","EX","S-00001-352","608","ACT-709478","250","mg/kg","SOLUTION","QD","ORAL GAVAGE","2939-AA/1","Methylcellulose 0.5% / polyoxyethylene sorbitan monooleate (Tween 80) 0.5% / water (w/v/v)","10","mL/kg","2018-10-31","23"
"S-00001","EX","S-00001-352","609","ACT-709478","250","mg/kg","SOLUTION","QD","ORAL GAVAGE","2939-AA/1","Methylcellulose 0.5% / polyoxyethylene sorbitan monooleate (Tween 80) 0.5% / water (w/v/v)","10","mL/kg","2018-11-01","24"
"S-00001","EX","S-00001-352","610","ACT-709478","250","mg/kg","SOLUTION","QD","ORAL GAVAGE","2939-AA/1","Methylcellulose 0.5% / polyoxyethylene sorbitan monooleate (Tween 80) 0.5% / water (w/v/v)","10","mL/kg","2018-11-02","25"
"S-00001","EX","S-00001-352","611","ACT-709478","250","mg/kg","SOLUTION","QD","ORAL GAVAGE","2939-AA/1","Methylcellulose 0.5% / polyoxyethylene sorbitan monooleate (Tween 80) 0.5% / water (w/v/v)","10","mL/kg","2018-11-03","26"
"S-00001","EX","S-00001-352","612","ACT-709478","250","mg/kg","SOLUTION","QD","ORAL GAVAGE","2939-AA/1","Methylcellulose 0.5% / polyoxyethylene sorbitan monooleate (Tween 80) 0.5% / water (w/v/v)","10","mL/kg","2018-11-04","27"
"S-00001","EX","S-00001-352","613","ACT-709478","250","mg/kg","SOLUTION","QD","ORAL GAVAGE","2939-AA/1","Methylcellulose 0.5% / polyoxyethylene sorbitan monooleate (Tween 80) 0.5% / water (w/v/v)","10","mL/kg","2018-11-05","28"
"S-00001","EX","S-00001-352","614","ACT-709478","250","mg/kg","SOLUTION","QD","ORAL GAVAGE","2939-AA/1","Methylcellulose 0.5% / polyoxyethylene sorbitan monooleate (Tween 80) 0.5% / water (w/v/v)","10","mL/kg","2018-11-06","29"
"S-00001","EX","S-00001-352","615","ACT-709478","250","mg/kg","SOLUTION","QD","ORAL GAVAGE","2939-AA/1","Methylcellulose 0.5% / polyoxyethylene sorbitan monooleate (Tween 80) 0.5% / water (w/v/v)","10","mL/kg","2018-11-07","30"
"S-00001","EX","S-00001-352","616","ACT-709478","250","mg/kg","SOLUTION","QD","ORAL GAVAGE","2939-AA/1","Methylcellulose 0.5% / polyoxyethylene sorbitan monooleate (Tween 80) 0.5% / water (w/v/v)","10","mL/kg","2018-11-08","31"
"S-00001","EX","S-00001-352","617","ACT-709478","250","mg/kg","SOLUTION","QD","ORAL GAVAGE","2939-AA/1","Methylcellulose 0.5% / polyoxyethylene sorbitan monooleate (Tween 80) 0.5% / water (w/v/v)","10","mL/kg","2018-11-09","32"
"S-00001","EX","S-00001-352","618","ACT-709478","250","mg/kg","SOLUTION","QD","ORAL GAVAGE","2939-AA/1","Methylcellulose 0.5% / polyoxyethylene sorbitan monooleate (Tween 80) 0.5% / water (w/v/v)","10","mL/kg","2018-11-10","33"
"S-00001","EX","S-00001-352","619","ACT-709478","250","mg/kg","SOLUTION","QD","ORAL GAVAGE","2939-AA/1","Methylcellulose 0.5% / polyoxyethylene sorbitan monooleate (Tween 80) 0.5% / water (w/v/v)","10","mL/kg","2018-11-11","34"
"S-00001","EX","S-00001-352","620","ACT-709478","250","mg/kg","SOLUTION","QD","ORAL GAVAGE","2939-AA/1","Methylcellulose 0.5% / polyoxyethylene sorbitan monooleate (Tween 80) 0.5% / water (w/v/v)","10","mL/kg","2018-11-12","35"
"S-00001","EX","S-00001-352","621","ACT-709478","250","mg/kg","SOLUTION","QD","ORAL GAVAGE","2939-AA/1","Methylcellulose 0.5% / polyoxyethylene sorbitan monooleate (Tween 80) 0.5% / water (w/v/v)","10","mL/kg","2018-11-13","36"
"S-00001","EX","S-00001-352","622","ACT-709478","250","mg/kg","SOLUTION","QD","ORAL GAVAGE","2939-AA/1","Methylcellulose 0.5% / polyoxyethylene sorbitan monooleate (Tween 80) 0.5% / water (w/v/v)","10","mL/kg","2018-11-14","37"
"S-00001","EX","S-00001-352","623","ACT-709478","250","mg/kg","SOLUTION","QD","ORAL GAVAGE","2939-AA/1","Methylcellulose 0.5% / polyoxyethylene sorbitan monooleate (Tween 80) 0.5% / water (w/v/v)","10","mL/kg","2018-11-15","38"
"S-00001","EX","S-00001-352","624","ACT-709478","250","mg/kg","SOLUTION","QD","ORAL GAVAGE","2939-AA/1","Methylcellulose 0.5% / polyoxyethylene sorbitan monooleate (Tween 80) 0.5% / water (w/v/v)","10","mL/kg","2018-11-16","39"
"S-00001","EX","S-00001-352","625","ACT-709478","250","mg/kg","SOLUTION","QD","ORAL GAVAGE","2939-AA/1","Methylcellulose 0.5% / polyoxyethylene sorbitan monooleate (Tween 80) 0.5% / water (w/v/v)","10","mL/kg","2018-11-17","40"
"S-00001","EX","S-00001-352","626","ACT-709478","250","mg/kg","SOLUTION","QD","ORAL GAVAGE","2939-AA/1","Methylcellulose 0.5% / polyoxyethylene sorbitan monooleate (Tween 80) 0.5% / water (w/v/v)","10","mL/kg","2018-11-18","41"
"S-00001","EX","S-00001-352","627","ACT-709478","250","mg/kg","SOLUTION","QD","ORAL GAVAGE","2939-AA/1","Methylcellulose 0.5% / polyoxyethylene sorbitan monooleate (Tween 80) 0.5% / water (w/v/v)","10","mL/kg","2018-11-19","42"
"S-00001","EX","S-00001-352","628","ACT-709478","250","mg/kg","SOLUTION","QD","ORAL GAVAGE","2939-AA/1","Methylcellulose 0.5% / polyoxyethylene sorbitan monooleate (Tween 80) 0.5% / water (w/v/v)","10","mL/kg","2018-11-20","43"
"S-00001","EX","S-00001-352","629","ACT-709478","250","mg/kg","SOLUTION","QD","ORAL GAVAGE","2939-AA/1","Methylcellulose 0.5% / polyoxyethylene sorbitan monooleate (Tween 80) 0.5% / water (w/v/v)","10","mL/kg","2018-11-21","44"
"S-00001","EX","S-00001-352","630","ACT-709478","250","mg/kg","SOLUTION","QD","ORAL GAVAGE","2939-AA/1","Methylcellulose 0.5% / polyoxyethylene sorbitan monooleate (Tween 80) 0.5% / water (w/v/v)","10","mL/kg","2018-11-22","45"
"S-00001","EX","S-00001-353","631","ACT-709478","250","mg/kg","SOLUTION","QD","ORAL GAVAGE","2939-AA/1","Methylcellulose 0.5% / polyoxyethylene sorbitan monooleate (Tween 80) 0.5% / water (w/v/v)","10","mL/kg","2018-10-09","1"
"S-00001","EX","S-00001-353","632","ACT-709478","250","mg/kg","SOLUTION","QD","ORAL GAVAGE","2939-AA/1","Methylcellulose 0.5% / polyoxyethylene sorbitan monooleate (Tween 80) 0.5% / water (w/v/v)","10","mL/kg","2018-10-10","2"
"S-00001","EX","S-00001-353","633","ACT-709478","250","mg/kg","SOLUTION","QD","ORAL GAVAGE","2939-AA/1","Methylcellulose 0.5% / polyoxyethylene sorbitan monooleate (Tween 80) 0.5% / water (w/v/v)","10","mL/kg","2018-10-11","3"
"S-00001","EX","S-00001-353","634","ACT-709478","250","mg/kg","SOLUTION","QD","ORAL GAVAGE","2939-AA/1","Methylcellulose 0.5% / polyoxyethylene sorbitan monooleate (Tween 80) 0.5% / water (w/v/v)","10","mL/kg","2018-10-12","4"
"S-00001","EX","S-00001-353","635","ACT-709478","250","mg/kg","SOLUTION","QD","ORAL GAVAGE","2939-AA/1","Methylcellulose 0.5% / polyoxyethylene sorbitan monooleate (Tween 80) 0.5% / water (w/v/v)","10","mL/kg","2018-10-13","5"
"S-00001","EX","S-00001-353","636","ACT-709478","250","mg/kg","SOLUTION","QD","ORAL GAVAGE","2939-AA/1","Methylcellulose 0.5% / polyoxyethylene sorbitan monooleate (Tween 80) 0.5% / water (w/v/v)","10","mL/kg","2018-10-14","6"
"S-00001","EX","S-00001-353","637","ACT-709478","250","mg/kg","SOLUTION","QD","ORAL GAVAGE","2939-AA/1","Methylcellulose 0.5% / polyoxyethylene sorbitan monooleate (Tween 80) 0.5% / water (w/v/v)","10","mL/kg","2018-10-15","7"
"S-00001","EX","S-00001-353","638","ACT-709478","250","mg/kg","SOLUTION","QD","ORAL GAVAGE","2939-AA/1","Methylcellulose 0.5% / polyoxyethylene sorbitan monooleate (Tween 80) 0.5% / water (w/v/v)","10","mL/kg","2018-10-16","8"
"S-00001","EX","S-00001-353","639","ACT-709478","250","mg/kg","SOLUTION","QD","ORAL GAVAGE","2939-AA/1","Methylcellulose 0.5% / polyoxyethylene sorbitan monooleate (Tween 80) 0.5% / water (w/v/v)","10","mL/kg","2018-10-17","9"
"S-00001","EX","S-00001-353","640","ACT-709478","250","mg/kg","SOLUTION","QD","ORAL GAVAGE","2939-AA/1","Methylcellulose 0.5% / polyoxyethylene sorbitan monooleate (Tween 80) 0.5% / water (w/v/v)","10","mL/kg","2018-10-18","10"
"S-00001","EX","S-00001-353","641","ACT-709478","250","mg/kg","SOLUTION","QD","ORAL GAVAGE","2939-AA/1","Methylcellulose 0.5% / polyoxyethylene sorbitan monooleate (Tween 80) 0.5% / water (w/v/v)","10","mL/kg","2018-10-19","11"
"S-00001","EX","S-00001-353","642","ACT-709478","250","mg/kg","SOLUTION","QD","ORAL GAVAGE","2939-AA/1","Methylcellulose 0.5% / polyoxyethylene sorbitan monooleate (Tween 80) 0.5% / water (w/v/v)","10","mL/kg","2018-10-20","12"
"S-00001","EX","S-00001-353","643","ACT-709478","250","mg/kg","SOLUTION","QD","ORAL GAVAGE","2939-AA/1","Methylcellulose 0.5% / polyoxyethylene sorbitan monooleate (Tween 80) 0.5% / water (w/v/v)","10","mL/kg","2018-10-21","13"
"S-00001","EX","S-00001-353","644","ACT-709478","250","mg/kg","SOLUTION","QD","ORAL GAVAGE","2939-AA/1","Methylcellulose 0.5% / polyoxyethylene sorbitan monooleate (Tween 80) 0.5% / water (w/v/v)","10","mL/kg","2018-10-22","14"
"S-00001","EX","S-00001-353","645","ACT-709478","250","mg/kg","SOLUTION","QD","ORAL GAVAGE","2939-AA/1","Methylcellulose 0.5% / polyoxyethylene sorbitan monooleate (Tween 80) 0.5% / water (w/v/v)","10","mL/kg","2018-10-23","15"
"S-00001","EX","S-00001-353","646","ACT-709478","250","mg/kg","SOLUTION","QD","ORAL GAVAGE","2939-AA/1","Methylcellulose 0.5% / polyoxyethylene sorbitan monooleate (Tween 80) 0.5% / water (w/v/v)","10","mL/kg","2018-10-24","16"
"S-00001","EX","S-00001-353","647","ACT-709478","250","mg/kg","SOLUTION","QD","ORAL GAVAGE","2939-AA/1","Methylcellulose 0.5% / polyoxyethylene sorbitan monooleate (Tween 80) 0.5% / water (w/v/v)","10","mL/kg","2018-10-25","17"
"S-00001","EX","S-00001-353","648","ACT-709478","250","mg/kg","SOLUTION","QD","ORAL GAVAGE","2939-AA/1","Methylcellulose 0.5% / polyoxyethylene sorbitan monooleate (Tween 80) 0.5% / water (w/v/v)","10","mL/kg","2018-10-26","18"
"S-00001","EX","S-00001-353","649","ACT-709478","250","mg/kg","SOLUTION","QD","ORAL GAVAGE","2939-AA/1","Methylcellulose 0.5% / polyoxyethylene sorbitan monooleate (Tween 80) 0.5% / water (w/v/v)","10","mL/kg","2018-10-27","19"
"S-00001","EX","S-00001-353","650","ACT-709478","250","mg/kg","SOLUTION","QD","ORAL GAVAGE","2939-AA/1","Methylcellulose 0.5% / polyoxyethylene sorbitan monooleate (Tween 80) 0.5% / water (w/v/v)","10","mL/kg","2018-10-28","20"
"S-00001","EX","S-00001-353","651","ACT-709478","250","mg/kg","SOLUTION","QD","ORAL GAVAGE","2939-AA/1","Methylcellulose 0.5% / polyoxyethylene sorbitan monooleate (Tween 80) 0.5% / water (w/v/v)","10","mL/kg","2018-10-29","21"
"S-00001","EX","S-00001-353","652","ACT-709478","250","mg/kg","SOLUTION","QD","ORAL GAVAGE","2939-AA/1","Methylcellulose 0.5% / polyoxyethylene sorbitan monooleate (Tween 80) 0.5% / water (w/v/v)","10","mL/kg","2018-10-30","22"
"S-00001","EX","S-00001-353","653","ACT-709478","250","mg/kg","SOLUTION","QD","ORAL GAVAGE","2939-AA/1","Methylcellulose 0.5% / polyoxyethylene sorbitan monooleate (Tween 80) 0.5% / water (w/v/v)","10","mL/kg","2018-10-31","23"
"S-00001","EX","S-00001-353","654","ACT-709478","250","mg/kg","SOLUTION","QD","ORAL GAVAGE","2939-AA/1","Methylcellulose 0.5% / polyoxyethylene sorbitan monooleate (Tween 80) 0.5% / water (w/v/v)","10","mL/kg","2018-11-01","24"
"S-00001","EX","S-00001-353","655","ACT-709478","250","mg/kg","SOLUTION","QD","ORAL GAVAGE","2939-AA/1","Methylcellulose 0.5% / polyoxyethylene sorbitan monooleate (Tween 80) 0.5% / water (w/v/v)","10","mL/kg","2018-11-02","25"
"S-00001","EX","S-00001-353","656","ACT-709478","250","mg/kg","SOLUTION","QD","ORAL GAVAGE","2939-AA/1","Methylcellulose 0.5% / polyoxyethylene sorbitan monooleate (Tween 80) 0.5% / water (w/v/v)","10","mL/kg","2018-11-03","26"
"S-00001","EX","S-00001-353","657","ACT-709478","250","mg/kg","SOLUTION","QD","ORAL GAVAGE","2939-AA/1","Methylcellulose 0.5% / polyoxyethylene sorbitan monooleate (Tween 80) 0.5% / water (w/v/v)","10","mL/kg","2018-11-04","27"
"S-00001","EX","S-00001-353","658","ACT-709478","250","mg/kg","SOLUTION","QD","ORAL GAVAGE","2939-AA/1","Methylcellulose 0.5% / polyoxyethylene sorbitan monooleate (Tween 80) 0.5% / water (w/v/v)","10","mL/kg","2018-11-05","28"
"S-00001","EX","S-00001-353","659","ACT-709478","250","mg/kg","SOLUTION","QD","ORAL GAVAGE","2939-AA/1","Methylcellulose 0.5% / polyoxyethylene sorbitan monooleate (Tween 80) 0.5% / water (w/v/v)","10","mL/kg","2018-11-06","29"
"S-00001","EX","S-00001-353","660","ACT-709478","250","mg/kg","SOLUTION","QD","ORAL GAVAGE","2939-AA/1","Methylcellulose 0.5% / polyoxyethylene sorbitan monooleate (Tween 80) 0.5% / water (w/v/v)","10","mL/kg","2018-11-07","30"
"S-00001","EX","S-00001-353","661","ACT-709478","250","mg/kg","SOLUTION","QD","ORAL GAVAGE","2939-AA/1","Methylcellulose 0.5% / polyoxyethylene sorbitan monooleate (Tween 80) 0.5% / water (w/v/v)","10","mL/kg","2018-11-08","31"
"S-00001","EX","S-00001-353","662","ACT-709478","250","mg/kg","SOLUTION","QD","ORAL GAVAGE","2939-AA/1","Methylcellulose 0.5% / polyoxyethylene sorbitan monooleate (Tween 80) 0.5% / water (w/v/v)","10","mL/kg","2018-11-09","32"
"S-00001","EX","S-00001-353","663","ACT-709478","250","mg/kg","SOLUTION","QD","ORAL GAVAGE","2939-AA/1","Methylcellulose 0.5% / polyoxyethylene sorbitan monooleate (Tween 80) 0.5% / water (w/v/v)","10","mL/kg","2018-11-10","33"
"S-00001","EX","S-00001-353","664","ACT-709478","250","mg/kg","SOLUTION","QD","ORAL GAVAGE","2939-AA/1","Methylcellulose 0.5% / polyoxyethylene sorbitan monooleate (Tween 80) 0.5% / water (w/v/v)","10","mL/kg","2018-11-11","34"
"S-00001","EX","S-00001-353","665","ACT-709478","250","mg/kg","SOLUTION","QD","ORAL GAVAGE","2939-AA/1","Methylcellulose 0.5% / polyoxyethylene sorbitan monooleate (Tween 80) 0.5% / water (w/v/v)","10","mL/kg","2018-11-12","35"
"S-00001","EX","S-00001-353","666","ACT-709478","250","mg/kg","SOLUTION","QD","ORAL GAVAGE","2939-AA/1","Methylcellulose 0.5% / polyoxyethylene sorbitan monooleate (Tween 80) 0.5% / water (w/v/v)","10","mL/kg","2018-11-13","36"
"S-00001","EX","S-00001-353","667","ACT-709478","250","mg/kg","SOLUTION","QD","ORAL GAVAGE","2939-AA/1","Methylcellulose 0.5% / polyoxyethylene sorbitan monooleate (Tween 80) 0.5% / water (w/v/v)","10","mL/kg","2018-11-14","37"
"S-00001","EX","S-00001-353","668","ACT-709478","250","mg/kg","SOLUTION","QD","ORAL GAVAGE","2939-AA/1","Methylcellulose 0.5% / polyoxyethylene sorbitan monooleate (Tween 80) 0.5% / water (w/v/v)","10","mL/kg","2018-11-15","38"
"S-00001","EX","S-00001-353","669","ACT-709478","250","mg/kg","SOLUTION","QD","ORAL GAVAGE","2939-AA/1","Methylcellulose 0.5% / polyoxyethylene sorbitan monooleate (Tween 80) 0.5% / water (w/v/v)","10","mL/kg","2018-11-16","39"
"S-00001","EX","S-00001-353","670","ACT-709478","250","mg/kg","SOLUTION","QD","ORAL GAVAGE","2939-AA/1","Methylcellulose 0.5% / polyoxyethylene sorbitan monooleate (Tween 80) 0.5% / water (w/v/v)","10","mL/kg","2018-11-17","40"
"S-00001","EX","S-00001-353","671","ACT-709478","250","mg/kg","SOLUTION","QD","ORAL GAVAGE","2939-AA/1","Methylcellulose 0.5% / polyoxyethylene sorbitan monooleate (Tween 80) 0.5% / water (w/v/v)","10","mL/kg","2018-11-18","41"
"S-00001","EX","S-00001-353","672","ACT-709478","250","mg/kg","SOLUTION","QD","ORAL GAVAGE","2939-AA/1","Methylcellulose 0.5% / polyoxyethylene sorbitan monooleate (Tween 80) 0.5% / water (w/v/v)","10","mL/kg","2018-11-19","42"
"S-00001","EX","S-00001-353","673","ACT-709478","250","mg/kg","SOLUTION","QD","ORAL GAVAGE","2939-AA/1","Methylcellulose 0.5% / polyoxyethylene sorbitan monooleate (Tween 80) 0.5% / water (w/v/v)","10","mL/kg","2018-11-20","43"
"S-00001","EX","S-00001-353","674","ACT-709478","250","mg/kg","SOLUTION","QD","ORAL GAVAGE","2939-AA/1","Methylcellulose 0.5% / polyoxyethylene sorbitan monooleate (Tween 80) 0.5% / water (w/v/v)","10","mL/kg","2018-11-21","44"
"S-00001","EX","S-00001-353","675","ACT-709478","250","mg/kg","SOLUTION","QD","ORAL GAVAGE","2939-AA/1","Methylcellulose 0.5% / polyoxyethylene sorbitan monooleate (Tween 80) 0.5% / water (w/v/v)","10","mL/kg","2018-11-22","45"
"S-00001","EX","S-00001-354","676","ACT-709478","250","mg/kg","SOLUTION","QD","ORAL GAVAGE","2939-AA/1","Methylcellulose 0.5% / polyoxyethylene sorbitan monooleate (Tween 80) 0.5% / water (w/v/v)","10","mL/kg","2018-10-09","1"
"S-00001","EX","S-00001-354","677","ACT-709478","250","mg/kg","SOLUTION","QD","ORAL GAVAGE","2939-AA/1","Methylcellulose 0.5% / polyoxyethylene sorbitan monooleate (Tween 80) 0.5% / water (w/v/v)","10","mL/kg","2018-10-10","2"
"S-00001","EX","S-00001-354","678","ACT-709478","250","mg/kg","SOLUTION","QD","ORAL GAVAGE","2939-AA/1","Methylcellulose 0.5% / polyoxyethylene sorbitan monooleate (Tween 80) 0.5% / water (w/v/v)","10","mL/kg","2018-10-11","3"
"S-00001","EX","S-00001-354","679","ACT-709478","250","mg/kg","SOLUTION","QD","ORAL GAVAGE","2939-AA/1","Methylcellulose 0.5% / polyoxyethylene sorbitan monooleate (Tween 80) 0.5% / water (w/v/v)","10","mL/kg","2018-10-12","4"
"S-00001","EX","S-00001-354","680","ACT-709478","250","mg/kg","SOLUTION","QD","ORAL GAVAGE","2939-AA/1","Methylcellulose 0.5% / polyoxyethylene sorbitan monooleate (Tween 80) 0.5% / water (w/v/v)","10","mL/kg","2018-10-13","5"
"S-00001","EX","S-00001-354","681","ACT-709478","250","mg/kg","SOLUTION","QD","ORAL GAVAGE","2939-AA/1","Methylcellulose 0.5% / polyoxyethylene sorbitan monooleate (Tween 80) 0.5% / water (w/v/v)","10","mL/kg","2018-10-14","6"
"S-00001","EX","S-00001-354","682","ACT-709478","250","mg/kg","SOLUTION","QD","ORAL GAVAGE","2939-AA/1","Methylcellulose 0.5% / polyoxyethylene sorbitan monooleate (Tween 80) 0.5% / water (w/v/v)","10","mL/kg","2018-10-15","7"
"S-00001","EX","S-00001-354","683","ACT-709478","250","mg/kg","SOLUTION","QD","ORAL GAVAGE","2939-AA/1","Methylcellulose 0.5% / polyoxyethylene sorbitan monooleate (Tween 80) 0.5% / water (w/v/v)","10","mL/kg","2018-10-16","8"
"S-00001","EX","S-00001-354","684","ACT-709478","250","mg/kg","SOLUTION","QD","ORAL GAVAGE","2939-AA/1","Methylcellulose 0.5% / polyoxyethylene sorbitan monooleate (Tween 80) 0.5% / water (w/v/v)","10","mL/kg","2018-10-17","9"
"S-00001","EX","S-00001-354","685","ACT-709478","250","mg/kg","SOLUTION","QD","ORAL GAVAGE","2939-AA/1","Methylcellulose 0.5% / polyoxyethylene sorbitan monooleate (Tween 80) 0.5% / water (w/v/v)","10","mL/kg","2018-10-18","10"
"S-00001","EX","S-00001-354","686","ACT-709478","250","mg/kg","SOLUTION","QD","ORAL GAVAGE","2939-AA/1","Methylcellulose 0.5% / polyoxyethylene sorbitan monooleate (Tween 80) 0.5% / water (w/v/v)","10","mL/kg","2018-10-19","11"
"S-00001","EX","S-00001-354","687","ACT-709478","250","mg/kg","SOLUTION","QD","ORAL GAVAGE","2939-AA/1","Methylcellulose 0.5% / polyoxyethylene sorbitan monooleate (Tween 80) 0.5% / water (w/v/v)","10","mL/kg","2018-10-20","12"
"S-00001","EX","S-00001-354","688","ACT-709478","250","mg/kg","SOLUTION","QD","ORAL GAVAGE","2939-AA/1","Methylcellulose 0.5% / polyoxyethylene sorbitan monooleate (Tween 80) 0.5% / water (w/v/v)","10","mL/kg","2018-10-21","13"
"S-00001","EX","S-00001-354","689","ACT-709478","250","mg/kg","SOLUTION","QD","ORAL GAVAGE","2939-AA/1","Methylcellulose 0.5% / polyoxyethylene sorbitan monooleate (Tween 80) 0.5% / water (w/v/v)","10","mL/kg","2018-10-22","14"
"S-00001","EX","S-00001-354","690","ACT-709478","250","mg/kg","SOLUTION","QD","ORAL GAVAGE","2939-AA/1","Methylcellulose 0.5% / polyoxyethylene sorbitan monooleate (Tween 80) 0.5% / water (w/v/v)","10","mL/kg","2018-10-23","15"
"S-00001","EX","S-00001-354","691","ACT-709478","250","mg/kg","SOLUTION","QD","ORAL GAVAGE","2939-AA/1","Methylcellulose 0.5% / polyoxyethylene sorbitan monooleate (Tween 80) 0.5% / water (w/v/v)","10","mL/kg","2018-10-24","16"
"S-00001","EX","S-00001-354","692","ACT-709478","250","mg/kg","SOLUTION","QD","ORAL GAVAGE","2939-AA/1","Methylcellulose 0.5% / polyoxyethylene sorbitan monooleate (Tween 80) 0.5% / water (w/v/v)","10","mL/kg","2018-10-25","17"
"S-00001","EX","S-00001-354","693","ACT-709478","250","mg/kg","SOLUTION","QD","ORAL GAVAGE","2939-AA/1","Methylcellulose 0.5% / polyoxyethylene sorbitan monooleate (Tween 80) 0.5% / water (w/v/v)","10","mL/kg","2018-10-26","18"
"S-00001","EX","S-00001-354","694","ACT-709478","250","mg/kg","SOLUTION","QD","ORAL GAVAGE","2939-AA/1","Methylcellulose 0.5% / polyoxyethylene sorbitan monooleate (Tween 80) 0.5% / water (w/v/v)","10","mL/kg","2018-10-27","19"
"S-00001","EX","S-00001-354","695","ACT-709478","250","mg/kg","SOLUTION","QD","ORAL GAVAGE","2939-AA/1","Methylcellulose 0.5% / polyoxyethylene sorbitan monooleate (Tween 80) 0.5% / water (w/v/v)","10","mL/kg","2018-10-28","20"
"S-00001","EX","S-00001-354","696","ACT-709478","250","mg/kg","SOLUTION","QD","ORAL GAVAGE","2939-AA/1","Methylcellulose 0.5% / polyoxyethylene sorbitan monooleate (Tween 80) 0.5% / water (w/v/v)","10","mL/kg","2018-10-29","21"
"S-00001","EX","S-00001-354","697","ACT-709478","250","mg/kg","SOLUTION","QD","ORAL GAVAGE","2939-AA/1","Methylcellulose 0.5% / polyoxyethylene sorbitan monooleate (Tween 80) 0.5% / water (w/v/v)","10","mL/kg","2018-10-30","22"
"S-00001","EX","S-00001-354","698","ACT-709478","250","mg/kg","SOLUTION","QD","ORAL GAVAGE","2939-AA/1","Methylcellulose 0.5% / polyoxyethylene sorbitan monooleate (Tween 80) 0.5% / water (w/v/v)","10","mL/kg","2018-10-31","23"
"S-00001","EX","S-00001-354","699","ACT-709478","250","mg/kg","SOLUTION","QD","ORAL GAVAGE","2939-AA/1","Methylcellulose 0.5% / polyoxyethylene sorbitan monooleate (Tween 80) 0.5% / water (w/v/v)","10","mL/kg","2018-11-01","24"
"S-00001","EX","S-00001-354","700","ACT-709478","250","mg/kg","SOLUTION","QD","ORAL GAVAGE","2939-AA/1","Methylcellulose 0.5% / polyoxyethylene sorbitan monooleate (Tween 80) 0.5% / water (w/v/v)","10","mL/kg","2018-11-02","25"
"S-00001","EX","S-00001-354","701","ACT-709478","250","mg/kg","SOLUTION","QD","ORAL GAVAGE","2939-AA/1","Methylcellulose 0.5% / polyoxyethylene sorbitan monooleate (Tween 80) 0.5% / water (w/v/v)","10","mL/kg","2018-11-03","26"
"S-00001","EX","S-00001-354","702","ACT-709478","250","mg/kg","SOLUTION","QD","ORAL GAVAGE","2939-AA/1","Methylcellulose 0.5% / polyoxyethylene sorbitan monooleate (Tween 80) 0.5% / water (w/v/v)","10","mL/kg","2018-11-04","27"
"S-00001","EX","S-00001-354","703","ACT-709478","250","mg/kg","SOLUTION","QD","ORAL GAVAGE","2939-AA/1","Methylcellulose 0.5% / polyoxyethylene sorbitan monooleate (Tween 80) 0.5% / water (w/v/v)","10","mL/kg","2018-11-05","28"
"S-00001","EX","S-00001-354","704","ACT-709478","250","mg/kg","SOLUTION","QD","ORAL GAVAGE","2939-AA/1","Methylcellulose 0.5% / polyoxyethylene sorbitan monooleate (Tween 80) 0.5% / water (w/v/v)","10","mL/kg","2018-11-06","29"
"S-00001","EX","S-00001-354","705","ACT-709478","250","mg/kg","SOLUTION","QD","ORAL GAVAGE","2939-AA/1","Methylcellulose 0.5% / polyoxyethylene sorbitan monooleate (Tween 80) 0.5% / water (w/v/v)","10","mL/kg","2018-11-07","30"
"S-00001","EX","S-00001-354","706","ACT-709478","250","mg/kg","SOLUTION","QD","ORAL GAVAGE","2939-AA/1","Methylcellulose 0.5% / polyoxyethylene sorbitan monooleate (Tween 80) 0.5% / water (w/v/v)","10","mL/kg","2018-11-08","31"
"S-00001","EX","S-00001-354","707","ACT-709478","250","mg/kg","SOLUTION","QD","ORAL GAVAGE","2939-AA/1","Methylcellulose 0.5% / polyoxyethylene sorbitan monooleate (Tween 80) 0.5% / water (w/v/v)","10","mL/kg","2018-11-09","32"
"S-00001","EX","S-00001-354","708","ACT-709478","250","mg/kg","SOLUTION","QD","ORAL GAVAGE","2939-AA/1","Methylcellulose 0.5% / polyoxyethylene sorbitan monooleate (Tween 80) 0.5% / water (w/v/v)","10","mL/kg","2018-11-10","33"
"S-00001","EX","S-00001-354","709","ACT-709478","250","mg/kg","SOLUTION","QD","ORAL GAVAGE","2939-AA/1","Methylcellulose 0.5% / polyoxyethylene sorbitan monooleate (Tween 80) 0.5% / water (w/v/v)","10","mL/kg","2018-11-11","34"
"S-00001","EX","S-00001-354","710","ACT-709478","250","mg/kg","SOLUTION","QD","ORAL GAVAGE","2939-AA/1","Methylcellulose 0.5% / polyoxyethylene sorbitan monooleate (Tween 80) 0.5% / water (w/v/v)","10","mL/kg","2018-11-12","35"
"S-00001","EX","S-00001-354","711","ACT-709478","250","mg/kg","SOLUTION","QD","ORAL GAVAGE","2939-AA/1","Methylcellulose 0.5% / polyoxyethylene sorbitan monooleate (Tween 80) 0.5% / water (w/v/v)","10","mL/kg","2018-11-13","36"
"S-00001","EX","S-00001-354","712","ACT-709478","250","mg/kg","SOLUTION","QD","ORAL GAVAGE","2939-AA/1","Methylcellulose 0.5% / polyoxyethylene sorbitan monooleate (Tween 80) 0.5% / water (w/v/v)","10","mL/kg","2018-11-14","37"
"S-00001","EX","S-00001-354","713","ACT-709478","250","mg/kg","SOLUTION","QD","ORAL GAVAGE","2939-AA/1","Methylcellulose 0.5% / polyoxyethylene sorbitan monooleate (Tween 80) 0.5% / water (w/v/v)","10","mL/kg","2018-11-15","38"
"S-00001","EX","S-00001-354","714","ACT-709478","250","mg/kg","SOLUTION","QD","ORAL GAVAGE","2939-AA/1","Methylcellulose 0.5% / polyoxyethylene sorbitan monooleate (Tween 80) 0.5% / water (w/v/v)","10","mL/kg","2018-11-16","39"
"S-00001","EX","S-00001-354","715","ACT-709478","250","mg/kg","SOLUTION","QD","ORAL GAVAGE","2939-AA/1","Methylcellulose 0.5% / polyoxyethylene sorbitan monooleate (Tween 80) 0.5% / water (w/v/v)","10","mL/kg","2018-11-17","40"
"S-00001","EX","S-00001-354","716","ACT-709478","250","mg/kg","SOLUTION","QD","ORAL GAVAGE","2939-AA/1","Methylcellulose 0.5% / polyoxyethylene sorbitan monooleate (Tween 80) 0.5% / water (w/v/v)","10","mL/kg","2018-11-18","41"
"S-00001","EX","S-00001-354","717","ACT-709478","250","mg/kg","SOLUTION","QD","ORAL GAVAGE","2939-AA/1","Methylcellulose 0.5% / polyoxyethylene sorbitan monooleate (Tween 80) 0.5% / water (w/v/v)","10","mL/kg","2018-11-19","42"
"S-00001","EX","S-00001-354","718","ACT-709478","250","mg/kg","SOLUTION","QD","ORAL GAVAGE","2939-AA/1","Methylcellulose 0.5% / polyoxyethylene sorbitan monooleate (Tween 80) 0.5% / water (w/v/v)","10","mL/kg","2018-11-20","43"
"S-00001","EX","S-00001-354","719","ACT-709478","250","mg/kg","SOLUTION","QD","ORAL GAVAGE","2939-AA/1","Methylcellulose 0.5% / polyoxyethylene sorbitan monooleate (Tween 80) 0.5% / water (w/v/v)","10","mL/kg","2018-11-21","44"
"S-00001","EX","S-00001-354","720","ACT-709478","250","mg/kg","SOLUTION","QD","ORAL GAVAGE","2939-AA/1","Methylcellulose 0.5% / polyoxyethylene sorbitan monooleate (Tween 80) 0.5% / water (w/v/v)","10","mL/kg","2018-11-22","45"
"S-00001","EX","S-00001-355","721","ACT-709478","250","mg/kg","SOLUTION","QD","ORAL GAVAGE","2939-AA/1","Methylcellulose 0.5% / polyoxyethylene sorbitan monooleate (Tween 80) 0.5% / water (w/v/v)","10","mL/kg","2018-10-09","1"
"S-00001","EX","S-00001-355","722","ACT-709478","250","mg/kg","SOLUTION","QD","ORAL GAVAGE","2939-AA/1","Methylcellulose 0.5% / polyoxyethylene sorbitan monooleate (Tween 80) 0.5% / water (w/v/v)","10","mL/kg","2018-10-10","2"
"S-00001","EX","S-00001-355","723","ACT-709478","250","mg/kg","SOLUTION","QD","ORAL GAVAGE","2939-AA/1","Methylcellulose 0.5% / polyoxyethylene sorbitan monooleate (Tween 80) 0.5% / water (w/v/v)","10","mL/kg","2018-10-11","3"
"S-00001","EX","S-00001-355","724","ACT-709478","250","mg/kg","SOLUTION","QD","ORAL GAVAGE","2939-AA/1","Methylcellulose 0.5% / polyoxyethylene sorbitan monooleate (Tween 80) 0.5% / water (w/v/v)","10","mL/kg","2018-10-12","4"
"S-00001","EX","S-00001-355","725","ACT-709478","250","mg/kg","SOLUTION","QD","ORAL GAVAGE","2939-AA/1","Methylcellulose 0.5% / polyoxyethylene sorbitan monooleate (Tween 80) 0.5% / water (w/v/v)","10","mL/kg","2018-10-13","5"
"S-00001","EX","S-00001-355","726","ACT-709478","250","mg/kg","SOLUTION","QD","ORAL GAVAGE","2939-AA/1","Methylcellulose 0.5% / polyoxyethylene sorbitan monooleate (Tween 80) 0.5% / water (w/v/v)","10","mL/kg","2018-10-14","6"
"S-00001","EX","S-00001-355","727","ACT-709478","250","mg/kg","SOLUTION","QD","ORAL GAVAGE","2939-AA/1","Methylcellulose 0.5% / polyoxyethylene sorbitan monooleate (Tween 80) 0.5% / water (w/v/v)","10","mL/kg","2018-10-15","7"
"S-00001","EX","S-00001-355","728","ACT-709478","250","mg/kg","SOLUTION","QD","ORAL GAVAGE","2939-AA/1","Methylcellulose 0.5% / polyoxyethylene sorbitan monooleate (Tween 80) 0.5% / water (w/v/v)","10","mL/kg","2018-10-16","8"
"S-00001","EX","S-00001-355","729","ACT-709478","250","mg/kg","SOLUTION","QD","ORAL GAVAGE","2939-AA/1","Methylcellulose 0.5% / polyoxyethylene sorbitan monooleate (Tween 80) 0.5% / water (w/v/v)","10","mL/kg","2018-10-17","9"
"S-00001","EX","S-00001-355","730","ACT-709478","250","mg/kg","SOLUTION","QD","ORAL GAVAGE","2939-AA/1","Methylcellulose 0.5% / polyoxyethylene sorbitan monooleate (Tween 80) 0.5% / water (w/v/v)","10","mL/kg","2018-10-18","10"
"S-00001","EX","S-00001-355","731","ACT-709478","250","mg/kg","SOLUTION","QD","ORAL GAVAGE","2939-AA/1","Methylcellulose 0.5% / polyoxyethylene sorbitan monooleate (Tween 80) 0.5% / water (w/v/v)","10","mL/kg","2018-10-19","11"
"S-00001","EX","S-00001-355","732","ACT-709478","250","mg/kg","SOLUTION","QD","ORAL GAVAGE","2939-AA/1","Methylcellulose 0.5% / polyoxyethylene sorbitan monooleate (Tween 80) 0.5% / water (w/v/v)","10","mL/kg","2018-10-20","12"
"S-00001","EX","S-00001-355","733","ACT-709478","250","mg/kg","SOLUTION","QD","ORAL GAVAGE","2939-AA/1","Methylcellulose 0.5% / polyoxyethylene sorbitan monooleate (Tween 80) 0.5% / water (w/v/v)","10","mL/kg","2018-10-21","13"
"S-00001","EX","S-00001-355","734","ACT-709478","250","mg/kg","SOLUTION","QD","ORAL GAVAGE","2939-AA/1","Methylcellulose 0.5% / polyoxyethylene sorbitan monooleate (Tween 80) 0.5% / water (w/v/v)","10","mL/kg","2018-10-22","14"
"S-00001","EX","S-00001-355","735","ACT-709478","250","mg/kg","SOLUTION","QD","ORAL GAVAGE","2939-AA/1","Methylcellulose 0.5% / polyoxyethylene sorbitan monooleate (Tween 80) 0.5% / water (w/v/v)","10","mL/kg","2018-10-23","15"
"S-00001","EX","S-00001-355","736","ACT-709478","250","mg/kg","SOLUTION","QD","ORAL GAVAGE","2939-AA/1","Methylcellulose 0.5% / polyoxyethylene sorbitan monooleate (Tween 80) 0.5% / water (w/v/v)","10","mL/kg","2018-10-24","16"
"S-00001","EX","S-00001-355","737","ACT-709478","250","mg/kg","SOLUTION","QD","ORAL GAVAGE","2939-AA/1","Methylcellulose 0.5% / polyoxyethylene sorbitan monooleate (Tween 80) 0.5% / water (w/v/v)","10","mL/kg","2018-10-25","17"
"S-00001","EX","S-00001-355","738","ACT-709478","250","mg/kg","SOLUTION","QD","ORAL GAVAGE","2939-AA/1","Methylcellulose 0.5% / polyoxyethylene sorbitan monooleate (Tween 80) 0.5% / water (w/v/v)","10","mL/kg","2018-10-26","18"
"S-00001","EX","S-00001-355","739","ACT-709478","250","mg/kg","SOLUTION","QD","ORAL GAVAGE","2939-AA/1","Methylcellulose 0.5% / polyoxyethylene sorbitan monooleate (Tween 80) 0.5% / water (w/v/v)","10","mL/kg","2018-10-27","19"
"S-00001","EX","S-00001-355","740","ACT-709478","250","mg/kg","SOLUTION","QD","ORAL GAVAGE","2939-AA/1","Methylcellulose 0.5% / polyoxyethylene sorbitan monooleate (Tween 80) 0.5% / water (w/v/v)","10","mL/kg","2018-10-28","20"
"S-00001","EX","S-00001-355","741","ACT-709478","250","mg/kg","SOLUTION","QD","ORAL GAVAGE","2939-AA/1","Methylcellulose 0.5% / polyoxyethylene sorbitan monooleate (Tween 80) 0.5% / water (w/v/v)","10","mL/kg","2018-10-29","21"
"S-00001","EX","S-00001-355","742","ACT-709478","250","mg/kg","SOLUTION","QD","ORAL GAVAGE","2939-AA/1","Methylcellulose 0.5% / polyoxyethylene sorbitan monooleate (Tween 80) 0.5% / water (w/v/v)","10","mL/kg","2018-10-30","22"
"S-00001","EX","S-00001-355","743","ACT-709478","250","mg/kg","SOLUTION","QD","ORAL GAVAGE","2939-AA/1","Methylcellulose 0.5% / polyoxyethylene sorbitan monooleate (Tween 80) 0.5% / water (w/v/v)","10","mL/kg","2018-10-31","23"
"S-00001","EX","S-00001-355","744","ACT-709478","250","mg/kg","SOLUTION","QD","ORAL GAVAGE","2939-AA/1","Methylcellulose 0.5% / polyoxyethylene sorbitan monooleate (Tween 80) 0.5% / water (w/v/v)","10","mL/kg","2018-11-01","24"
"S-00001","EX","S-00001-355","745","ACT-709478","250","mg/kg","SOLUTION","QD","ORAL GAVAGE","2939-AA/1","Methylcellulose 0.5% / polyoxyethylene sorbitan monooleate (Tween 80) 0.5% / water (w/v/v)","10","mL/kg","2018-11-02","25"
"S-00001","EX","S-00001-355","746","ACT-709478","250","mg/kg","SOLUTION","QD","ORAL GAVAGE","2939-AA/1","Methylcellulose 0.5% / polyoxyethylene sorbitan monooleate (Tween 80) 0.5% / water (w/v/v)","10","mL/kg","2018-11-03","26"
"S-00001","EX","S-00001-355","747","ACT-709478","250","mg/kg","SOLUTION","QD","ORAL GAVAGE","2939-AA/1","Methylcellulose 0.5% / polyoxyethylene sorbitan monooleate (Tween 80) 0.5% / water (w/v/v)","10","mL/kg","2018-11-04","27"
"S-00001","EX","S-00001-355","748","ACT-709478","250","mg/kg","SOLUTION","QD","ORAL GAVAGE","2939-AA/1","Methylcellulose 0.5% / polyoxyethylene sorbitan monooleate (Tween 80) 0.5% / water (w/v/v)","10","mL/kg","2018-11-05","28"
"S-00001","EX","S-00001-355","749","ACT-709478","250","mg/kg","SOLUTION","QD","ORAL GAVAGE","2939-AA/1","Methylcellulose 0.5% / polyoxyethylene sorbitan monooleate (Tween 80) 0.5% / water (w/v/v)","10","mL/kg","2018-11-06","29"
"S-00001","EX","S-00001-355","750","ACT-709478","250","mg/kg","SOLUTION","QD","ORAL GAVAGE","2939-AA/1","Methylcellulose 0.5% / polyoxyethylene sorbitan monooleate (Tween 80) 0.5% / water (w/v/v)","10","mL/kg","2018-11-07","30"
"S-00001","EX","S-00001-355","751","ACT-709478","250","mg/kg","SOLUTION","QD","ORAL GAVAGE","2939-AA/1","Methylcellulose 0.5% / polyoxyethylene sorbitan monooleate (Tween 80) 0.5% / water (w/v/v)","10","mL/kg","2018-11-08","31"
"S-00001","EX","S-00001-355","752","ACT-709478","250","mg/kg","SOLUTION","QD","ORAL GAVAGE","2939-AA/1","Methylcellulose 0.5% / polyoxyethylene sorbitan monooleate (Tween 80) 0.5% / water (w/v/v)","10","mL/kg","2018-11-09","32"
"S-00001","EX","S-00001-355","753","ACT-709478","250","mg/kg","SOLUTION","QD","ORAL GAVAGE","2939-AA/1","Methylcellulose 0.5% / polyoxyethylene sorbitan monooleate (Tween 80) 0.5% / water (w/v/v)","10","mL/kg","2018-11-10","33"
"S-00001","EX","S-00001-355","754","ACT-709478","250","mg/kg","SOLUTION","QD","ORAL GAVAGE","2939-AA/1","Methylcellulose 0.5% / polyoxyethylene sorbitan monooleate (Tween 80) 0.5% / water (w/v/v)","10","mL/kg","2018-11-11","34"
"S-00001","EX","S-00001-355","755","ACT-709478","250","mg/kg","SOLUTION","QD","ORAL GAVAGE","2939-AA/1","Methylcellulose 0.5% / polyoxyethylene sorbitan monooleate (Tween 80) 0.5% / water (w/v/v)","10","mL/kg","2018-11-12","35"
"S-00001","EX","S-00001-355","756","ACT-709478","250","mg/kg","SOLUTION","QD","ORAL GAVAGE","2939-AA/1","Methylcellulose 0.5% / polyoxyethylene sorbitan monooleate (Tween 80) 0.5% / water (w/v/v)","10","mL/kg","2018-11-13","36"
"S-00001","EX","S-00001-355","757","ACT-709478","250","mg/kg","SOLUTION","QD","ORAL GAVAGE","2939-AA/1","Methylcellulose 0.5% / polyoxyethylene sorbitan monooleate (Tween 80) 0.5% / water (w/v/v)","10","mL/kg","2018-11-14","37"
"S-00001","EX","S-00001-355","758","ACT-709478","250","mg/kg","SOLUTION","QD","ORAL GAVAGE","2939-AA/1","Methylcellulose 0.5% / polyoxyethylene sorbitan monooleate (Tween 80) 0.5% / water (w/v/v)","10","mL/kg","2018-11-15","38"
"S-00001","EX","S-00001-355","759","ACT-709478","250","mg/kg","SOLUTION","QD","ORAL GAVAGE","2939-AA/1","Methylcellulose 0.5% / polyoxyethylene sorbitan monooleate (Tween 80) 0.5% / water (w/v/v)","10","mL/kg","2018-11-16","39"
"S-00001","EX","S-00001-355","760","ACT-709478","250","mg/kg","SOLUTION","QD","ORAL GAVAGE","2939-AA/1","Methylcellulose 0.5% / polyoxyethylene sorbitan monooleate (Tween 80) 0.5% / water (w/v/v)","10","mL/kg","2018-11-17","40"
"S-00001","EX","S-00001-355","761","ACT-709478","250","mg/kg","SOLUTION","QD","ORAL GAVAGE","2939-AA/1","Methylcellulose 0.5% / polyoxyethylene sorbitan monooleate (Tween 80) 0.5% / water (w/v/v)","10","mL/kg","2018-11-18","41"
"S-00001","EX","S-00001-355","762","ACT-709478","250","mg/kg","SOLUTION","QD","ORAL GAVAGE","2939-AA/1","Methylcellulose 0.5% / polyoxyethylene sorbitan monooleate (Tween 80) 0.5% / water (w/v/v)","10","mL/kg","2018-11-19","42"
"S-00001","EX","S-00001-355","763","ACT-709478","250","mg/kg","SOLUTION","QD","ORAL GAVAGE","2939-AA/1","Methylcellulose 0.5% / polyoxyethylene sorbitan monooleate (Tween 80) 0.5% / water (w/v/v)","10","mL/kg","2018-11-20","43"
"S-00001","EX","S-00001-355","764","ACT-709478","250","mg/kg","SOLUTION","QD","ORAL GAVAGE","2939-AA/1","Methylcellulose 0.5% / polyoxyethylene sorbitan monooleate (Tween 80) 0.5% / water (w/v/v)","10","mL/kg","2018-11-21","44"
"S-00001","EX","S-00001-355","765","ACT-709478","250","mg/kg","SOLUTION","QD","ORAL GAVAGE","2939-AA/1","Methylcellulose 0.5% / polyoxyethylene sorbitan monooleate (Tween 80) 0.5% / water (w/v/v)","10","mL/kg","2018-11-22","45"
"S-00001","EX","S-00001-356","766","ACT-709478","250","mg/kg","SOLUTION","QD","ORAL GAVAGE","2939-AA/1","Methylcellulose 0.5% / polyoxyethylene sorbitan monooleate (Tween 80) 0.5% / water (w/v/v)","10","mL/kg","2018-10-09","1"
"S-00001","EX","S-00001-356","767","ACT-709478","250","mg/kg","SOLUTION","QD","ORAL GAVAGE","2939-AA/1","Methylcellulose 0.5% / polyoxyethylene sorbitan monooleate (Tween 80) 0.5% / water (w/v/v)","10","mL/kg","2018-10-10","2"
"S-00001","EX","S-00001-356","768","ACT-709478","250","mg/kg","SOLUTION","QD","ORAL GAVAGE","2939-AA/1","Methylcellulose 0.5% / polyoxyethylene sorbitan monooleate (Tween 80) 0.5% / water (w/v/v)","10","mL/kg","2018-10-11","3"
"S-00001","EX","S-00001-356","769","ACT-709478","250","mg/kg","SOLUTION","QD","ORAL GAVAGE","2939-AA/1","Methylcellulose 0.5% / polyoxyethylene sorbitan monooleate (Tween 80) 0.5% / water (w/v/v)","10","mL/kg","2018-10-12","4"
"S-00001","EX","S-00001-356","770","ACT-709478","250","mg/kg","SOLUTION","QD","ORAL GAVAGE","2939-AA/1","Methylcellulose 0.5% / polyoxyethylene sorbitan monooleate (Tween 80) 0.5% / water (w/v/v)","10","mL/kg","2018-10-13","5"
"S-00001","EX","S-00001-356","771","ACT-709478","250","mg/kg","SOLUTION","QD","ORAL GAVAGE","2939-AA/1","Methylcellulose 0.5% / polyoxyethylene sorbitan monooleate (Tween 80) 0.5% / water (w/v/v)","10","mL/kg","2018-10-14","6"
"S-00001","EX","S-00001-356","772","ACT-709478","250","mg/kg","SOLUTION","QD","ORAL GAVAGE","2939-AA/1","Methylcellulose 0.5% / polyoxyethylene sorbitan monooleate (Tween 80) 0.5% / water (w/v/v)","10","mL/kg","2018-10-15","7"
"S-00001","EX","S-00001-356","773","ACT-709478","250","mg/kg","SOLUTION","QD","ORAL GAVAGE","2939-AA/1","Methylcellulose 0.5% / polyoxyethylene sorbitan monooleate (Tween 80) 0.5% / water (w/v/v)","10","mL/kg","2018-10-16","8"
"S-00001","EX","S-00001-356","774","ACT-709478","250","mg/kg","SOLUTION","QD","ORAL GAVAGE","2939-AA/1","Methylcellulose 0.5% / polyoxyethylene sorbitan monooleate (Tween 80) 0.5% / water (w/v/v)","10","mL/kg","2018-10-17","9"
"S-00001","EX","S-00001-356","775","ACT-709478","250","mg/kg","SOLUTION","QD","ORAL GAVAGE","2939-AA/1","Methylcellulose 0.5% / polyoxyethylene sorbitan monooleate (Tween 80) 0.5% / water (w/v/v)","10","mL/kg","2018-10-18","10"
"S-00001","EX","S-00001-356","776","ACT-709478","250","mg/kg","SOLUTION","QD","ORAL GAVAGE","2939-AA/1","Methylcellulose 0.5% / polyoxyethylene sorbitan monooleate (Tween 80) 0.5% / water (w/v/v)","10","mL/kg","2018-10-19","11"
"S-00001","EX","S-00001-356","777","ACT-709478","250","mg/kg","SOLUTION","QD","ORAL GAVAGE","2939-AA/1","Methylcellulose 0.5% / polyoxyethylene sorbitan monooleate (Tween 80) 0.5% / water (w/v/v)","10","mL/kg","2018-10-20","12"
"S-00001","EX","S-00001-356","778","ACT-709478","250","mg/kg","SOLUTION","QD","ORAL GAVAGE","2939-AA/1","Methylcellulose 0.5% / polyoxyethylene sorbitan monooleate (Tween 80) 0.5% / water (w/v/v)","10","mL/kg","2018-10-21","13"
"S-00001","EX","S-00001-356","779","ACT-709478","250","mg/kg","SOLUTION","QD","ORAL GAVAGE","2939-AA/1","Methylcellulose 0.5% / polyoxyethylene sorbitan monooleate (Tween 80) 0.5% / water (w/v/v)","10","mL/kg","2018-10-22","14"
"S-00001","EX","S-00001-356","780","ACT-709478","250","mg/kg","SOLUTION","QD","ORAL GAVAGE","2939-AA/1","Methylcellulose 0.5% / polyoxyethylene sorbitan monooleate (Tween 80) 0.5% / water (w/v/v)","10","mL/kg","2018-10-23","15"
"S-00001","EX","S-00001-356","781","ACT-709478","250","mg/kg","SOLUTION","QD","ORAL GAVAGE","2939-AA/1","Methylcellulose 0.5% / polyoxyethylene sorbitan monooleate (Tween 80) 0.5% / water (w/v/v)","10","mL/kg","2018-10-24","16"
"S-00001","EX","S-00001-356","782","ACT-709478","250","mg/kg","SOLUTION","QD","ORAL GAVAGE","2939-AA/1","Methylcellulose 0.5% / polyoxyethylene sorbitan monooleate (Tween 80) 0.5% / water (w/v/v)","10","mL/kg","2018-10-25","17"
"S-00001","EX","S-00001-356","783","ACT-709478","250","mg/kg","SOLUTION","QD","ORAL GAVAGE","2939-AA/1","Methylcellulose 0.5% / polyoxyethylene sorbitan monooleate (Tween 80) 0.5% / water (w/v/v)","10","mL/kg","2018-10-26","18"
"S-00001","EX","S-00001-356","784","ACT-709478","250","mg/kg","SOLUTION","QD","ORAL GAVAGE","2939-AA/1","Methylcellulose 0.5% / polyoxyethylene sorbitan monooleate (Tween 80) 0.5% / water (w/v/v)","10","mL/kg","2018-10-27","19"
"S-00001","EX","S-00001-356","785","ACT-709478","250","mg/kg","SOLUTION","QD","ORAL GAVAGE","2939-AA/1","Methylcellulose 0.5% / polyoxyethylene sorbitan monooleate (Tween 80) 0.5% / water (w/v/v)","10","mL/kg","2018-10-28","20"
"S-00001","EX","S-00001-356","786","ACT-709478","250","mg/kg","SOLUTION","QD","ORAL GAVAGE","2939-AA/1","Methylcellulose 0.5% / polyoxyethylene sorbitan monooleate (Tween 80) 0.5% / water (w/v/v)","10","mL/kg","2018-10-29","21"
"S-00001","EX","S-00001-356","787","ACT-709478","250","mg/kg","SOLUTION","QD","ORAL GAVAGE","2939-AA/1","Methylcellulose 0.5% / polyoxyethylene sorbitan monooleate (Tween 80) 0.5% / water (w/v/v)","10","mL/kg","2018-10-30","22"
"S-00001","EX","S-00001-356","788","ACT-709478","250","mg/kg","SOLUTION","QD","ORAL GAVAGE","2939-AA/1","Methylcellulose 0.5% / polyoxyethylene sorbitan monooleate (Tween 80) 0.5% / water (w/v/v)","10","mL/kg","2018-10-31","23"
"S-00001","EX","S-00001-356","789","ACT-709478","250","mg/kg","SOLUTION","QD","ORAL GAVAGE","2939-AA/1","Methylcellulose 0.5% / polyoxyethylene sorbitan monooleate (Tween 80) 0.5% / water (w/v/v)","10","mL/kg","2018-11-01","24"
"S-00001","EX","S-00001-356","790","ACT-709478","250","mg/kg","SOLUTION","QD","ORAL GAVAGE","2939-AA/1","Methylcellulose 0.5% / polyoxyethylene sorbitan monooleate (Tween 80) 0.5% / water (w/v/v)","10","mL/kg","2018-11-02","25"
"S-00001","EX","S-00001-356","791","ACT-709478","250","mg/kg","SOLUTION","QD","ORAL GAVAGE","2939-AA/1","Methylcellulose 0.5% / polyoxyethylene sorbitan monooleate (Tween 80) 0.5% / water (w/v/v)","10","mL/kg","2018-11-03","26"
"S-00001","EX","S-00001-356","792","ACT-709478","250","mg/kg","SOLUTION","QD","ORAL GAVAGE","2939-AA/1","Methylcellulose 0.5% / polyoxyethylene sorbitan monooleate (Tween 80) 0.5% / water (w/v/v)","10","mL/kg","2018-11-04","27"
"S-00001","EX","S-00001-356","793","ACT-709478","250","mg/kg","SOLUTION","QD","ORAL GAVAGE","2939-AA/1","Methylcellulose 0.5% / polyoxyethylene sorbitan monooleate (Tween 80) 0.5% / water (w/v/v)","10","mL/kg","2018-11-05","28"
"S-00001","EX","S-00001-356","794","ACT-709478","250","mg/kg","SOLUTION","QD","ORAL GAVAGE","2939-AA/1","Methylcellulose 0.5% / polyoxyethylene sorbitan monooleate (Tween 80) 0.5% / water (w/v/v)","10","mL/kg","2018-11-06","29"
"S-00001","EX","S-00001-356","795","ACT-709478","250","mg/kg","SOLUTION","QD","ORAL GAVAGE","2939-AA/1","Methylcellulose 0.5% / polyoxyethylene sorbitan monooleate (Tween 80) 0.5% / water (w/v/v)","10","mL/kg","2018-11-07","30"
"S-00001","EX","S-00001-356","796","ACT-709478","250","mg/kg","SOLUTION","QD","ORAL GAVAGE","2939-AA/1","Methylcellulose 0.5% / polyoxyethylene sorbitan monooleate (Tween 80) 0.5% / water (w/v/v)","10","mL/kg","2018-11-08","31"
"S-00001","EX","S-00001-356","797","ACT-709478","250","mg/kg","SOLUTION","QD","ORAL GAVAGE","2939-AA/1","Methylcellulose 0.5% / polyoxyethylene sorbitan monooleate (Tween 80) 0.5% / water (w/v/v)","10","mL/kg","2018-11-09","32"
"S-00001","EX","S-00001-356","798","ACT-709478","250","mg/kg","SOLUTION","QD","ORAL GAVAGE","2939-AA/1","Methylcellulose 0.5% / polyoxyethylene sorbitan monooleate (Tween 80) 0.5% / water (w/v/v)","10","mL/kg","2018-11-10","33"
"S-00001","EX","S-00001-356","799","ACT-709478","250","mg/kg","SOLUTION","QD","ORAL GAVAGE","2939-AA/1","Methylcellulose 0.5% / polyoxyethylene sorbitan monooleate (Tween 80) 0.5% / water (w/v/v)","10","mL/kg","2018-11-11","34"
"S-00001","EX","S-00001-356","800","ACT-709478","250","mg/kg","SOLUTION","QD","ORAL GAVAGE","2939-AA/1","Methylcellulose 0.5% / polyoxyethylene sorbitan monooleate (Tween 80) 0.5% / water (w/v/v)","10","mL/kg","2018-11-12","35"
"S-00001","EX","S-00001-356","801","ACT-709478","250","mg/kg","SOLUTION","QD","ORAL GAVAGE","2939-AA/1","Methylcellulose 0.5% / polyoxyethylene sorbitan monooleate (Tween 80) 0.5% / water (w/v/v)","10","mL/kg","2018-11-13","36"
"S-00001","EX","S-00001-356","802","ACT-709478","250","mg/kg","SOLUTION","QD","ORAL GAVAGE","2939-AA/1","Methylcellulose 0.5% / polyoxyethylene sorbitan monooleate (Tween 80) 0.5% / water (w/v/v)","10","mL/kg","2018-11-14","37"
"S-00001","EX","S-00001-356","803","ACT-709478","250","mg/kg","SOLUTION","QD","ORAL GAVAGE","2939-AA/1","Methylcellulose 0.5% / polyoxyethylene sorbitan monooleate (Tween 80) 0.5% / water (w/v/v)","10","mL/kg","2018-11-15","38"
"S-00001","EX","S-00001-356","804","ACT-709478","250","mg/kg","SOLUTION","QD","ORAL GAVAGE","2939-AA/1","Methylcellulose 0.5% / polyoxyethylene sorbitan monooleate (Tween 80) 0.5% / water (w/v/v)","10","mL/kg","2018-11-16","39"
"S-00001","EX","S-00001-356","805","ACT-709478","250","mg/kg","SOLUTION","QD","ORAL GAVAGE","2939-AA/1","Methylcellulose 0.5% / polyoxyethylene sorbitan monooleate (Tween 80) 0.5% / water (w/v/v)","10","mL/kg","2018-11-17","40"
"S-00001","EX","S-00001-356","806","ACT-709478","250","mg/kg","SOLUTION","QD","ORAL GAVAGE","2939-AA/1","Methylcellulose 0.5% / polyoxyethylene sorbitan monooleate (Tween 80) 0.5% / water (w/v/v)","10","mL/kg","2018-11-18","41"
"S-00001","EX","S-00001-356","807","ACT-709478","250","mg/kg","SOLUTION","QD","ORAL GAVAGE","2939-AA/1","Methylcellulose 0.5% / polyoxyethylene sorbitan monooleate (Tween 80) 0.5% / water (w/v/v)","10","mL/kg","2018-11-19","42"
"S-00001","EX","S-00001-356","808","ACT-709478","250","mg/kg","SOLUTION","QD","ORAL GAVAGE","2939-AA/1","Methylcellulose 0.5% / polyoxyethylene sorbitan monooleate (Tween 80) 0.5% / water (w/v/v)","10","mL/kg","2018-11-20","43"
"S-00001","EX","S-00001-356","809","ACT-709478","250","mg/kg","SOLUTION","QD","ORAL GAVAGE","2939-AA/1","Methylcellulose 0.5% / polyoxyethylene sorbitan monooleate (Tween 80) 0.5% / water (w/v/v)","10","mL/kg","2018-11-21","44"
"S-00001","EX","S-00001-356","810","ACT-709478","250","mg/kg","SOLUTION","QD","ORAL GAVAGE","2939-AA/1","Methylcellulose 0.5% / polyoxyethylene sorbitan monooleate (Tween 80) 0.5% / water (w/v/v)","10","mL/kg","2018-11-22","45"
"S-00001","EX","S-00001-451","811","ACT-709478","250","mg/kg","SOLUTION","QD","ORAL GAVAGE","2939-AA/1","Methylcellulose 0.5% / polyoxyethylene sorbitan monooleate (Tween 80) 0.5% / water (w/v/v)","10","mL/kg","2018-10-09","1"
"S-00001","EX","S-00001-451","812","ACT-709478","250","mg/kg","SOLUTION","QD","ORAL GAVAGE","2939-AA/1","Methylcellulose 0.5% / polyoxyethylene sorbitan monooleate (Tween 80) 0.5% / water (w/v/v)","10","mL/kg","2018-10-10","2"
"S-00001","EX","S-00001-451","813","ACT-709478","250","mg/kg","SOLUTION","QD","ORAL GAVAGE","2939-AA/1","Methylcellulose 0.5% / polyoxyethylene sorbitan monooleate (Tween 80) 0.5% / water (w/v/v)","10","mL/kg","2018-10-11","3"
"S-00001","EX","S-00001-451","814","ACT-709478","250","mg/kg","SOLUTION","QD","ORAL GAVAGE","2939-AA/1","Methylcellulose 0.5% / polyoxyethylene sorbitan monooleate (Tween 80) 0.5% / water (w/v/v)","10","mL/kg","2018-10-12","4"
"S-00001","EX","S-00001-451","815","ACT-709478","250","mg/kg","SOLUTION","QD","ORAL GAVAGE","2939-AA/1","Methylcellulose 0.5% / polyoxyethylene sorbitan monooleate (Tween 80) 0.5% / water (w/v/v)","10","mL/kg","2018-10-13","5"
"S-00001","EX","S-00001-451","816","ACT-709478","250","mg/kg","SOLUTION","QD","ORAL GAVAGE","2939-AA/1","Methylcellulose 0.5% / polyoxyethylene sorbitan monooleate (Tween 80) 0.5% / water (w/v/v)","10","mL/kg","2018-10-14","6"
"S-00001","EX","S-00001-451","817","ACT-709478","250","mg/kg","SOLUTION","QD","ORAL GAVAGE","2939-AA/1","Methylcellulose 0.5% / polyoxyethylene sorbitan monooleate (Tween 80) 0.5% / water (w/v/v)","10","mL/kg","2018-10-15","7"
"S-00001","EX","S-00001-451","818","ACT-709478","250","mg/kg","SOLUTION","QD","ORAL GAVAGE","2939-AA/1","Methylcellulose 0.5% / polyoxyethylene sorbitan monooleate (Tween 80) 0.5% / water (w/v/v)","10","mL/kg","2018-10-16","8"
"S-00001","EX","S-00001-451","819","ACT-709478","250","mg/kg","SOLUTION","QD","ORAL GAVAGE","2939-AA/1","Methylcellulose 0.5% / polyoxyethylene sorbitan monooleate (Tween 80) 0.5% / water (w/v/v)","10","mL/kg","2018-10-17","9"
"S-00001","EX","S-00001-451","820","ACT-709478","250","mg/kg","SOLUTION","QD","ORAL GAVAGE","2939-AA/1","Methylcellulose 0.5% / polyoxyethylene sorbitan monooleate (Tween 80) 0.5% / water (w/v/v)","10","mL/kg","2018-10-18","10"
"S-00001","EX","S-00001-451","821","ACT-709478","250","mg/kg","SOLUTION","QD","ORAL GAVAGE","2939-AA/1","Methylcellulose 0.5% / polyoxyethylene sorbitan monooleate (Tween 80) 0.5% / water (w/v/v)","10","mL/kg","2018-10-19","11"
"S-00001","EX","S-00001-451","822","ACT-709478","250","mg/kg","SOLUTION","QD","ORAL GAVAGE","2939-AA/1","Methylcellulose 0.5% / polyoxyethylene sorbitan monooleate (Tween 80) 0.5% / water (w/v/v)","10","mL/kg","2018-10-20","12"
"S-00001","EX","S-00001-451","823","ACT-709478","250","mg/kg","SOLUTION","QD","ORAL GAVAGE","2939-AA/1","Methylcellulose 0.5% / polyoxyethylene sorbitan monooleate (Tween 80) 0.5% / water (w/v/v)","10","mL/kg","2018-10-21","13"
"S-00001","EX","S-00001-451","824","ACT-709478","250","mg/kg","SOLUTION","QD","ORAL GAVAGE","2939-AA/1","Methylcellulose 0.5% / polyoxyethylene sorbitan monooleate (Tween 80) 0.5% / water (w/v/v)","10","mL/kg","2018-10-22","14"
"S-00001","EX","S-00001-451","825","ACT-709478","250","mg/kg","SOLUTION","QD","ORAL GAVAGE","2939-AA/1","Methylcellulose 0.5% / polyoxyethylene sorbitan monooleate (Tween 80) 0.5% / water (w/v/v)","10","mL/kg","2018-10-23","15"
"S-00001","EX","S-00001-451","826","ACT-709478","250","mg/kg","SOLUTION","QD","ORAL GAVAGE","2939-AA/1","Methylcellulose 0.5% / polyoxyethylene sorbitan monooleate (Tween 80) 0.5% / water (w/v/v)","10","mL/kg","2018-10-24","16"
"S-00001","EX","S-00001-451","827","ACT-709478","250","mg/kg","SOLUTION","QD","ORAL GAVAGE","2939-AA/1","Methylcellulose 0.5% / polyoxyethylene sorbitan monooleate (Tween 80) 0.5% / water (w/v/v)","10","mL/kg","2018-10-25","17"
"S-00001","EX","S-00001-451","828","ACT-709478","250","mg/kg","SOLUTION","QD","ORAL GAVAGE","2939-AA/1","Methylcellulose 0.5% / polyoxyethylene sorbitan monooleate (Tween 80) 0.5% / water (w/v/v)","10","mL/kg","2018-10-26","18"
"S-00001","EX","S-00001-451","829","ACT-709478","250","mg/kg","SOLUTION","QD","ORAL GAVAGE","2939-AA/1","Methylcellulose 0.5% / polyoxyethylene sorbitan monooleate (Tween 80) 0.5% / water (w/v/v)","10","mL/kg","2018-10-27","19"
"S-00001","EX","S-00001-451","830","ACT-709478","250","mg/kg","SOLUTION","QD","ORAL GAVAGE","2939-AA/1","Methylcellulose 0.5% / polyoxyethylene sorbitan monooleate (Tween 80) 0.5% / water (w/v/v)","10","mL/kg","2018-10-28","20"
"S-00001","EX","S-00001-451","831","ACT-709478","250","mg/kg","SOLUTION","QD","ORAL GAVAGE","2939-AA/1","Methylcellulose 0.5% / polyoxyethylene sorbitan monooleate (Tween 80) 0.5% / water (w/v/v)","10","mL/kg","2018-10-29","21"
"S-00001","EX","S-00001-451","832","ACT-709478","250","mg/kg","SOLUTION","QD","ORAL GAVAGE","2939-AA/1","Methylcellulose 0.5% / polyoxyethylene sorbitan monooleate (Tween 80) 0.5% / water (w/v/v)","10","mL/kg","2018-10-30","22"
"S-00001","EX","S-00001-451","833","ACT-709478","250","mg/kg","SOLUTION","QD","ORAL GAVAGE","2939-AA/1","Methylcellulose 0.5% / polyoxyethylene sorbitan monooleate (Tween 80) 0.5% / water (w/v/v)","10","mL/kg","2018-10-31","23"
"S-00001","EX","S-00001-451","834","ACT-709478","250","mg/kg","SOLUTION","QD","ORAL GAVAGE","2939-AA/1","Methylcellulose 0.5% / polyoxyethylene sorbitan monooleate (Tween 80) 0.5% / water (w/v/v)","10","mL/kg","2018-11-01","24"
"S-00001","EX","S-00001-451","835","ACT-709478","250","mg/kg","SOLUTION","QD","ORAL GAVAGE","2939-AA/1","Methylcellulose 0.5% / polyoxyethylene sorbitan monooleate (Tween 80) 0.5% / water (w/v/v)","10","mL/kg","2018-11-02","25"
"S-00001","EX","S-00001-451","836","ACT-709478","250","mg/kg","SOLUTION","QD","ORAL GAVAGE","2939-AA/1","Methylcellulose 0.5% / polyoxyethylene sorbitan monooleate (Tween 80) 0.5% / water (w/v/v)","10","mL/kg","2018-11-03","26"
"S-00001","EX","S-00001-451","837","ACT-709478","250","mg/kg","SOLUTION","QD","ORAL GAVAGE","2939-AA/1","Methylcellulose 0.5% / polyoxyethylene sorbitan monooleate (Tween 80) 0.5% / water (w/v/v)","10","mL/kg","2018-11-04","27"
"S-00001","EX","S-00001-451","838","ACT-709478","250","mg/kg","SOLUTION","QD","ORAL GAVAGE","2939-AA/1","Methylcellulose 0.5% / polyoxyethylene sorbitan monooleate (Tween 80) 0.5% / water (w/v/v)","10","mL/kg","2018-11-05","28"
"S-00001","EX","S-00001-451","839","ACT-709478","250","mg/kg","SOLUTION","QD","ORAL GAVAGE","2939-AA/1","Methylcellulose 0.5% / polyoxyethylene sorbitan monooleate (Tween 80) 0.5% / water (w/v/v)","10","mL/kg","2018-11-06","29"
"S-00001","EX","S-00001-451","840","ACT-709478","250","mg/kg","SOLUTION","QD","ORAL GAVAGE","2939-AA/1","Methylcellulose 0.5% / polyoxyethylene sorbitan monooleate (Tween 80) 0.5% / water (w/v/v)","10","mL/kg","2018-11-07","30"
"S-00001","EX","S-00001-451","841","ACT-709478","250","mg/kg","SOLUTION","QD","ORAL GAVAGE","2939-AA/1","Methylcellulose 0.5% / polyoxyethylene sorbitan monooleate (Tween 80) 0.5% / water (w/v/v)","10","mL/kg","2018-11-08","31"
"S-00001","EX","S-00001-452","842","ACT-709478","250","mg/kg","SOLUTION","QD","ORAL GAVAGE","2939-AA/1","Methylcellulose 0.5% / polyoxyethylene sorbitan monooleate (Tween 80) 0.5% / water (w/v/v)","10","mL/kg","2018-10-09","1"
"S-00001","EX","S-00001-452","843","ACT-709478","250","mg/kg","SOLUTION","QD","ORAL GAVAGE","2939-AA/1","Methylcellulose 0.5% / polyoxyethylene sorbitan monooleate (Tween 80) 0.5% / water (w/v/v)","10","mL/kg","2018-10-10","2"
"S-00001","EX","S-00001-452","844","ACT-709478","250","mg/kg","SOLUTION","QD","ORAL GAVAGE","2939-AA/1","Methylcellulose 0.5% / polyoxyethylene sorbitan monooleate (Tween 80) 0.5% / water (w/v/v)","10","mL/kg","2018-10-11","3"
"S-00001","EX","S-00001-452","845","ACT-709478","250","mg/kg","SOLUTION","QD","ORAL GAVAGE","2939-AA/1","Methylcellulose 0.5% / polyoxyethylene sorbitan monooleate (Tween 80) 0.5% / water (w/v/v)","10","mL/kg","2018-10-12","4"
"S-00001","EX","S-00001-452","846","ACT-709478","250","mg/kg","SOLUTION","QD","ORAL GAVAGE","2939-AA/1","Methylcellulose 0.5% / polyoxyethylene sorbitan monooleate (Tween 80) 0.5% / water (w/v/v)","10","mL/kg","2018-10-13","5"
"S-00001","EX","S-00001-452","847","ACT-709478","250","mg/kg","SOLUTION","QD","ORAL GAVAGE","2939-AA/1","Methylcellulose 0.5% / polyoxyethylene sorbitan monooleate (Tween 80) 0.5% / water (w/v/v)","10","mL/kg","2018-10-14","6"
"S-00001","EX","S-00001-452","848","ACT-709478","250","mg/kg","SOLUTION","QD","ORAL GAVAGE","2939-AA/1","Methylcellulose 0.5% / polyoxyethylene sorbitan monooleate (Tween 80) 0.5% / water (w/v/v)","10","mL/kg","2018-10-15","7"
"S-00001","EX","S-00001-452","849","ACT-709478","250","mg/kg","SOLUTION","QD","ORAL GAVAGE","2939-AA/1","Methylcellulose 0.5% / polyoxyethylene sorbitan monooleate (Tween 80) 0.5% / water (w/v/v)","10","mL/kg","2018-10-16","8"
"S-00001","EX","S-00001-452","850","ACT-709478","250","mg/kg","SOLUTION","QD","ORAL GAVAGE","2939-AA/1","Methylcellulose 0.5% / polyoxyethylene sorbitan monooleate (Tween 80) 0.5% / water (w/v/v)","10","mL/kg","2018-10-17","9"
"S-00001","EX","S-00001-452","851","ACT-709478","250","mg/kg","SOLUTION","QD","ORAL GAVAGE","2939-AA/1","Methylcellulose 0.5% / polyoxyethylene sorbitan monooleate (Tween 80) 0.5% / water (w/v/v)","10","mL/kg","2018-10-18","10"
"S-00001","EX","S-00001-452","852","ACT-709478","250","mg/kg","SOLUTION","QD","ORAL GAVAGE","2939-AA/1","Methylcellulose 0.5% / polyoxyethylene sorbitan monooleate (Tween 80) 0.5% / water (w/v/v)","10","mL/kg","2018-10-19","11"
"S-00001","EX","S-00001-452","853","ACT-709478","250","mg/kg","SOLUTION","QD","ORAL GAVAGE","2939-AA/1","Methylcellulose 0.5% / polyoxyethylene sorbitan monooleate (Tween 80) 0.5% / water (w/v/v)","10","mL/kg","2018-10-20","12"
"S-00001","EX","S-00001-452","854","ACT-709478","250","mg/kg","SOLUTION","QD","ORAL GAVAGE","2939-AA/1","Methylcellulose 0.5% / polyoxyethylene sorbitan monooleate (Tween 80) 0.5% / water (w/v/v)","10","mL/kg","2018-10-21","13"
"S-00001","EX","S-00001-452","855","ACT-709478","250","mg/kg","SOLUTION","QD","ORAL GAVAGE","2939-AA/1","Methylcellulose 0.5% / polyoxyethylene sorbitan monooleate (Tween 80) 0.5% / water (w/v/v)","10","mL/kg","2018-10-22","14"
"S-00001","EX","S-00001-452","856","ACT-709478","250","mg/kg","SOLUTION","QD","ORAL GAVAGE","2939-AA/1","Methylcellulose 0.5% / polyoxyethylene sorbitan monooleate (Tween 80) 0.5% / water (w/v/v)","10","mL/kg","2018-10-23","15"
"S-00001","EX","S-00001-452","857","ACT-709478","250","mg/kg","SOLUTION","QD","ORAL GAVAGE","2939-AA/1","Methylcellulose 0.5% / polyoxyethylene sorbitan monooleate (Tween 80) 0.5% / water (w/v/v)","10","mL/kg","2018-10-24","16"
"S-00001","EX","S-00001-452","858","ACT-709478","250","mg/kg","SOLUTION","QD","ORAL GAVAGE","2939-AA/1","Methylcellulose 0.5% / polyoxyethylene sorbitan monooleate (Tween 80) 0.5% / water (w/v/v)","10","mL/kg","2018-10-25","17"
"S-00001","EX","S-00001-452","859","ACT-709478","250","mg/kg","SOLUTION","QD","ORAL GAVAGE","2939-AA/1","Methylcellulose 0.5% / polyoxyethylene sorbitan monooleate (Tween 80) 0.5% / water (w/v/v)","10","mL/kg","2018-10-26","18"
"S-00001","EX","S-00001-452","860","ACT-709478","250","mg/kg","SOLUTION","QD","ORAL GAVAGE","2939-AA/1","Methylcellulose 0.5% / polyoxyethylene sorbitan monooleate (Tween 80) 0.5% / water (w/v/v)","10","mL/kg","2018-10-27","19"
"S-00001","EX","S-00001-452","861","ACT-709478","250","mg/kg","SOLUTION","QD","ORAL GAVAGE","2939-AA/1","Methylcellulose 0.5% / polyoxyethylene sorbitan monooleate (Tween 80) 0.5% / water (w/v/v)","10","mL/kg","2018-10-28","20"
"S-00001","EX","S-00001-452","862","ACT-709478","250","mg/kg","SOLUTION","QD","ORAL GAVAGE","2939-AA/1","Methylcellulose 0.5% / polyoxyethylene sorbitan monooleate (Tween 80) 0.5% / water (w/v/v)","10","mL/kg","2018-10-29","21"
"S-00001","EX","S-00001-452","863","ACT-709478","250","mg/kg","SOLUTION","QD","ORAL GAVAGE","2939-AA/1","Methylcellulose 0.5% / polyoxyethylene sorbitan monooleate (Tween 80) 0.5% / water (w/v/v)","10","mL/kg","2018-10-30","22"
"S-00001","EX","S-00001-452","864","ACT-709478","250","mg/kg","SOLUTION","QD","ORAL GAVAGE","2939-AA/1","Methylcellulose 0.5% / polyoxyethylene sorbitan monooleate (Tween 80) 0.5% / water (w/v/v)","10","mL/kg","2018-10-31","23"
"S-00001","EX","S-00001-452","865","ACT-709478","250","mg/kg","SOLUTION","QD","ORAL GAVAGE","2939-AA/1","Methylcellulose 0.5% / polyoxyethylene sorbitan monooleate (Tween 80) 0.5% / water (w/v/v)","10","mL/kg","2018-11-01","24"
"S-00001","EX","S-00001-452","866","ACT-709478","250","mg/kg","SOLUTION","QD","ORAL GAVAGE","2939-AA/1","Methylcellulose 0.5% / polyoxyethylene sorbitan monooleate (Tween 80) 0.5% / water (w/v/v)","10","mL/kg","2018-11-02","25"
"S-00001","EX","S-00001-452","867","ACT-709478","250","mg/kg","SOLUTION","QD","ORAL GAVAGE","2939-AA/1","Methylcellulose 0.5% / polyoxyethylene sorbitan monooleate (Tween 80) 0.5% / water (w/v/v)","10","mL/kg","2018-11-03","26"
"S-00001","EX","S-00001-452","868","ACT-709478","250","mg/kg","SOLUTION","QD","ORAL GAVAGE","2939-AA/1","Methylcellulose 0.5% / polyoxyethylene sorbitan monooleate (Tween 80) 0.5% / water (w/v/v)","10","mL/kg","2018-11-04","27"
"S-00001","EX","S-00001-452","869","ACT-709478","250","mg/kg","SOLUTION","QD","ORAL GAVAGE","2939-AA/1","Methylcellulose 0.5% / polyoxyethylene sorbitan monooleate (Tween 80) 0.5% / water (w/v/v)","10","mL/kg","2018-11-05","28"
"S-00001","EX","S-00001-452","870","ACT-709478","250","mg/kg","SOLUTION","QD","ORAL GAVAGE","2939-AA/1","Methylcellulose 0.5% / polyoxyethylene sorbitan monooleate (Tween 80) 0.5% / water (w/v/v)","10","mL/kg","2018-11-06","29"
"S-00001","EX","S-00001-452","871","ACT-709478","250","mg/kg","SOLUTION","QD","ORAL GAVAGE","2939-AA/1","Methylcellulose 0.5% / polyoxyethylene sorbitan monooleate (Tween 80) 0.5% / water (w/v/v)","10","mL/kg","2018-11-07","30"
"S-00001","EX","S-00001-452","872","ACT-709478","250","mg/kg","SOLUTION","QD","ORAL GAVAGE","2939-AA/1","Methylcellulose 0.5% / polyoxyethylene sorbitan monooleate (Tween 80) 0.5% / water (w/v/v)","10","mL/kg","2018-11-08","31"
"S-00001","EX","S-00001-453","873","ACT-709478","250","mg/kg","SOLUTION","QD","ORAL GAVAGE","2939-AA/1","Methylcellulose 0.5% / polyoxyethylene sorbitan monooleate (Tween 80) 0.5% / water (w/v/v)","10","mL/kg","2018-10-09","1"
"S-00001","EX","S-00001-453","874","ACT-709478","250","mg/kg","SOLUTION","QD","ORAL GAVAGE","2939-AA/1","Methylcellulose 0.5% / polyoxyethylene sorbitan monooleate (Tween 80) 0.5% / water (w/v/v)","10","mL/kg","2018-10-10","2"
"S-00001","EX","S-00001-453","875","ACT-709478","250","mg/kg","SOLUTION","QD","ORAL GAVAGE","2939-AA/1","Methylcellulose 0.5% / polyoxyethylene sorbitan monooleate (Tween 80) 0.5% / water (w/v/v)","10","mL/kg","2018-10-11","3"
"S-00001","EX","S-00001-453","876","ACT-709478","250","mg/kg","SOLUTION","QD","ORAL GAVAGE","2939-AA/1","Methylcellulose 0.5% / polyoxyethylene sorbitan monooleate (Tween 80) 0.5% / water (w/v/v)","10","mL/kg","2018-10-12","4"
"S-00001","EX","S-00001-453","877","ACT-709478","250","mg/kg","SOLUTION","QD","ORAL GAVAGE","2939-AA/1","Methylcellulose 0.5% / polyoxyethylene sorbitan monooleate (Tween 80) 0.5% / water (w/v/v)","10","mL/kg","2018-10-13","5"
"S-00001","EX","S-00001-453","878","ACT-709478","250","mg/kg","SOLUTION","QD","ORAL GAVAGE","2939-AA/1","Methylcellulose 0.5% / polyoxyethylene sorbitan monooleate (Tween 80) 0.5% / water (w/v/v)","10","mL/kg","2018-10-14","6"
"S-00001","EX","S-00001-453","879","ACT-709478","250","mg/kg","SOLUTION","QD","ORAL GAVAGE","2939-AA/1","Methylcellulose 0.5% / polyoxyethylene sorbitan monooleate (Tween 80) 0.5% / water (w/v/v)","10","mL/kg","2018-10-15","7"
"S-00001","EX","S-00001-453","880","ACT-709478","250","mg/kg","SOLUTION","QD","ORAL GAVAGE","2939-AA/1","Methylcellulose 0.5% / polyoxyethylene sorbitan monooleate (Tween 80) 0.5% / water (w/v/v)","10","mL/kg","2018-10-16","8"
"S-00001","EX","S-00001-453","881","ACT-709478","250","mg/kg","SOLUTION","QD","ORAL GAVAGE","2939-AA/1","Methylcellulose 0.5% / polyoxyethylene sorbitan monooleate (Tween 80) 0.5% / water (w/v/v)","10","mL/kg","2018-10-17","9"
"S-00001","EX","S-00001-453","882","ACT-709478","250","mg/kg","SOLUTION","QD","ORAL GAVAGE","2939-AA/1","Methylcellulose 0.5% / polyoxyethylene sorbitan monooleate (Tween 80) 0.5% / water (w/v/v)","10","mL/kg","2018-10-18","10"
"S-00001","EX","S-00001-453","883","ACT-709478","250","mg/kg","SOLUTION","QD","ORAL GAVAGE","2939-AA/1","Methylcellulose 0.5% / polyoxyethylene sorbitan monooleate (Tween 80) 0.5% / water (w/v/v)","10","mL/kg","2018-10-19","11"
"S-00001","EX","S-00001-453","884","ACT-709478","250","mg/kg","SOLUTION","QD","ORAL GAVAGE","2939-AA/1","Methylcellulose 0.5% / polyoxyethylene sorbitan monooleate (Tween 80) 0.5% / water (w/v/v)","10","mL/kg","2018-10-20","12"
"S-00001","EX","S-00001-453","885","ACT-709478","250","mg/kg","SOLUTION","QD","ORAL GAVAGE","2939-AA/1","Methylcellulose 0.5% / polyoxyethylene sorbitan monooleate (Tween 80) 0.5% / water (w/v/v)","10","mL/kg","2018-10-21","13"
"S-00001","EX","S-00001-453","886","ACT-709478","250","mg/kg","SOLUTION","QD","ORAL GAVAGE","2939-AA/1","Methylcellulose 0.5% / polyoxyethylene sorbitan monooleate (Tween 80) 0.5% / water (w/v/v)","10","mL/kg","2018-10-22","14"
"S-00001","EX","S-00001-453","887","ACT-709478","250","mg/kg","SOLUTION","QD","ORAL GAVAGE","2939-AA/1","Methylcellulose 0.5% / polyoxyethylene sorbitan monooleate (Tween 80) 0.5% / water (w/v/v)","10","mL/kg","2018-10-23","15"
"S-00001","EX","S-00001-453","888","ACT-709478","250","mg/kg","SOLUTION","QD","ORAL GAVAGE","2939-AA/1","Methylcellulose 0.5% / polyoxyethylene sorbitan monooleate (Tween 80) 0.5% / water (w/v/v)","10","mL/kg","2018-10-24","16"
"S-00001","EX","S-00001-453","889","ACT-709478","250","mg/kg","SOLUTION","QD","ORAL GAVAGE","2939-AA/1","Methylcellulose 0.5% / polyoxyethylene sorbitan monooleate (Tween 80) 0.5% / water (w/v/v)","10","mL/kg","2018-10-25","17"
"S-00001","EX","S-00001-453","890","ACT-709478","250","mg/kg","SOLUTION","QD","ORAL GAVAGE","2939-AA/1","Methylcellulose 0.5% / polyoxyethylene sorbitan monooleate (Tween 80) 0.5% / water (w/v/v)","10","mL/kg","2018-10-26","18"
