STUDYID,DOMAIN,USUBJID,LBSEQ,LBTESTCD,LBTEST,LBCAT,LBORRES,LBORRESU,LBSTRESC,LBSTRESN,LBSTRESU,LBSTAT,LBREASND,LBSPEC,LBMETHOD,LBBLFL,VISITDY,LBDTC,LBDY
20214751,LB,20214751-151,1,ALT,Alanine Aminotransferase,Serum Chemistry,38.0,U/L,38.0,38,U/L,,,,,,46,2018-11-23,46
20214751,LB,20214751-151,2,AST,Aspartate Aminotransferase,Serum Chemistry,77.0,U/L,77.0,77,U/L,,,,,,46,2018-11-23,46
20214751,LB,20214751-151,3,CA,Calcium,Serum Chemistry,2.6,mg/dL,2.6,2.6,mg/dL,,,,,,46,2018-11-23,46
20214751,LB,20214751-151,4,CHOL,Cholesterol,Serum Chemistry,55.0,mg/dL,55.0,55,mg/dL,,,,,,46,2018-11-23,46
20214751,LB,20214751-151,5,CREAT,Creatinine,Serum Chemistry,0.5,mg/dL,0.5,0.5,mg/dL,,,,,,46,2018-11-23,46
20214751,LB,20214751-151,6,PROT,Protein,Serum Chemistry,6.5,g/dL,6.5,6.5,g/dL,,,,,,46,2018-11-23,46
20214751,LB,20214751-151,7,INIO,Inorganic Iodine,Biomarker,107,ug/L,107,107,ug/L,,,,,,15,2018-10-23,15
20214751,LB,20214751-151,8,INIO,Inorganic Iodine,Biomarker,45,ug/L,45,45,ug/L,,,,,,28,2018-11-05,28
20214751,LB,20214751-151,9,INIO,Inorganic Iodine,Biomarker,42,ug/L,42,42,ug/L,,,,,,46,2018-11-23,46
20214751,LB,20214751-151,10,FE,Follicular epithelium %,Histology,41,%,41,41,%,,,GLAND THYROID,,,46,2018-11-23,46
20214751,LB,20214751-151,11,T3THY,Triiodothyronine/Thyroid,,8.94,ng/mg thyroid,8.94,8.94,ng/mg thyroid,,,GLAND THYROID,,,46,2018-11-23,46
20214751,LB,20214751-151,12,T4THY,Thyroxine/Thyroid,,144.0,ng/mg thyroid,144.0,144,ng/mg thyroid,,,GLAND THYROID,,,46,2018-11-23,46
20214751,LB,20214751-151,13,T3,Triiodothyronine,,125,ng/thyroid,125,125,ng/thyroid,,,GLAND THYROID,,,46,2018-11-23,46
20214751,LB,20214751-151,14,T4,Thyroxine,,2016,ng/thyroid,2016,2016,ng/thyroid,,,GLAND THYROID,,,46,2018-11-23,46
20214751,LB,20214751-151,15,IODIDETH,Iodide/Thyroid,,253,ng/mg thyroid,253,253,ng/mg thyroid,,,GLAND THYROID,,,46,2018-11-23,46
20214751,LB,20214751-151,16,IODIDE,Iodide,,3537,ng/thyroid,3537,3537,ng/thyroid,,,GLAND THYROID,,,46,2018-11-23,46
20214751,LB,20214751-151,17,TSH,Thyrotropin,,0.51,ng/mL,0.51,0.51,ng/mL,,,SERUM,,,15,2018-10-23,15
20214751,LB,20214751-151,18,T3,Triiodothyronine,,5.32,ng/mL,5.32,5.32,ng/mL,,,SERUM,,,15,2018-10-23,15
20214751,LB,20214751-151,19,T4,Thyroxine,,342,ng/mL,342,342,ng/mL,,,SERUM,,,15,2018-10-23,15
20214751,LB,20214751-151,20,TSH,Thyrotropin,,1.08,ng/mL,1.08,1.08,ng/mL,,,SERUM,,,28,2018-11-05,28
20214751,LB,20214751-151,21,T3,Triiodothyronine,,5.20,ng/mL,5.20,5.2,ng/mL,,,SERUM,,,28,2018-11-05,28
20214751,LB,20214751-151,22,T4,Thyroxine,,261,ng/mL,261,261,ng/mL,,,SERUM,,,28,2018-11-05,28
20214751,LB,20214751-151,23,TSH,Thyrotropin,,0.72,ng/mL,0.72,0.72,ng/mL,,,SERUM,,,46,2018-11-23,46
20214751,LB,20214751-151,24,T3,Triiodothyronine,,5.19,ng/mL,5.19,5.19,ng/mL,,,SERUM,,,46,2018-11-23,46
20214751,LB,20214751-151,25,T4,Thyroxine,,240,ng/mL,240,240,ng/mL,,,SERUM,,,46,2018-11-23,46
20214751,LB,20214751-152,26,ALT,Alanine Aminotransferase,Serum Chemistry,29.0,U/L,29.0,29,U/L,,,,,,46,2018-11-23,46
20214751,LB,20214751-152,27,AST,Aspartate Aminotransferase,Serum Chemistry,68.0,U/L,68.0,68,U/L,,,,,,46,2018-11-23,46
20214751,LB,20214751-152,28,CA,Calcium,Serum Chemistry,2.6,mg/dL,2.6,2.6,mg/dL,,,,,,46,2018-11-23,46
20214751,LB,20214751-152,29,CHOL,Cholesterol,Serum Chemistry,62.0,mg/dL,62.0,62,mg/dL,,,,,,46,2018-11-23,46
20214751,LB,20214751-152,30,CREAT,Creatinine,Serum Chemistry,0.5,mg/dL,0.5,0.5,mg/dL,,,,,,46,2018-11-23,46
20214751,LB,20214751-152,31,PROT,Protein,Serum Chemistry,6.9,g/dL,6.9,6.9,g/dL,,,,,,46,2018-11-23,46
20214751,LB,20214751-152,32,INIO,Inorganic Iodine,Biomarker,64,ug/L,64,64,ug/L,,,,,,15,2018-10-23,15
20214751,LB,20214751-152,33,INIO,Inorganic Iodine,Biomarker,34,ug/L,34,34,ug/L,,,,,,28,2018-11-05,28
20214751,LB,20214751-152,34,INIO,Inorganic Iodine,Biomarker,89,ug/L,89,89,ug/L,,,,,,46,2018-11-23,46
20214751,LB,20214751-152,35,FE,Follicular epithelium %,Histology,44,%,44,44,%,,,GLAND THYROID,,,46,2018-11-23,46
20214751,LB,20214751-152,36,T3THY,Triiodothyronine/Thyroid,,8.21,ng/mg thyroid,8.21,8.21,ng/mg thyroid,,,GLAND THYROID,,,46,2018-11-23,46
20214751,LB,20214751-152,37,T4THY,Thyroxine/Thyroid,,118.0,ng/mg thyroid,118.0,118,ng/mg thyroid,,,GLAND THYROID,,,46,2018-11-23,46
20214751,LB,20214751-152,38,T3,Triiodothyronine,,131,ng/thyroid,131,131,ng/thyroid,,,GLAND THYROID,,,46,2018-11-23,46
20214751,LB,20214751-152,39,T4,Thyroxine,,1888,ng/thyroid,1888,1888,ng/thyroid,,,GLAND THYROID,,,46,2018-11-23,46
20214751,LB,20214751-152,40,IODIDETH,Iodide/Thyroid,,232,ng/mg thyroid,232,232,ng/mg thyroid,,,GLAND THYROID,,,46,2018-11-23,46
20214751,LB,20214751-152,41,IODIDE,Iodide,,3705,ng/thyroid,3705,3705,ng/thyroid,,,GLAND THYROID,,,46,2018-11-23,46
20214751,LB,20214751-152,42,TSH,Thyrotropin,,0.64,ng/mL,0.64,0.64,ng/mL,,,SERUM,,,15,2018-10-23,15
20214751,LB,20214751-152,43,T3,Triiodothyronine,,5.73,ng/mL,5.73,5.73,ng/mL,,,SERUM,,,15,2018-10-23,15
20214751,LB,20214751-152,44,T4,Thyroxine,,338,ng/mL,338,338,ng/mL,,,SERUM,,,15,2018-10-23,15
20214751,LB,20214751-152,45,TSH,Thyrotropin,,0.37,ng/mL,0.37,0.37,ng/mL,,,SERUM,,,28,2018-11-05,28
20214751,LB,20214751-152,46,T3,Triiodothyronine,,6.32,ng/mL,6.32,6.32,ng/mL,,,SERUM,,,28,2018-11-05,28
20214751,LB,20214751-152,47,T4,Thyroxine,,212,ng/mL,212,212,ng/mL,,,SERUM,,,28,2018-11-05,28
20214751,LB,20214751-152,48,TSH,Thyrotropin,,0.59,ng/mL,0.59,0.59,ng/mL,,,SERUM,,,46,2018-11-23,46
20214751,LB,20214751-152,49,T3,Triiodothyronine,,4.10,ng/mL,4.10,4.1,ng/mL,,,SERUM,,,46,2018-11-23,46
20214751,LB,20214751-152,50,T4,Thyroxine,,213,ng/mL,213,213,ng/mL,,,SERUM,,,46,2018-11-23,46
20214751,LB,20214751-153,51,ALT,Alanine Aminotransferase,Serum Chemistry,28.0,U/L,28.0,28,U/L,,,,,,46,2018-11-23,46
20214751,LB,20214751-153,52,AST,Aspartate Aminotransferase,Serum Chemistry,68.0,U/L,68.0,68,U/L,,,,,,46,2018-11-23,46
20214751,LB,20214751-153,53,CA,Calcium,Serum Chemistry,2.6,mg/dL,2.6,2.6,mg/dL,,,,,,46,2018-11-23,46
20214751,LB,20214751-153,54,CHOL,Cholesterol,Serum Chemistry,66.0,mg/dL,66.0,66,mg/dL,,,,,,46,2018-11-23,46
20214751,LB,20214751-153,55,CREAT,Creatinine,Serum Chemistry,0.5,mg/dL,0.5,0.5,mg/dL,,,,,,46,2018-11-23,46
20214751,LB,20214751-153,56,PROT,Protein,Serum Chemistry,7.0,g/dL,7.0,7,g/dL,,,,,,46,2018-11-23,46
20214751,LB,20214751-153,57,INIO,Inorganic Iodine,Biomarker,100,ug/L,100,100,ug/L,,,,,,15,2018-10-23,15
20214751,LB,20214751-153,58,INIO,Inorganic Iodine,Biomarker,61,ug/L,61,61,ug/L,,,,,,28,2018-11-05,28
20214751,LB,20214751-153,59,INIO,Inorganic Iodine,Biomarker,90,ug/L,90,90,ug/L,,,,,,46,2018-11-23,46
20214751,LB,20214751-153,60,FE,Follicular epithelium %,Histology,58,%,58,58,%,,,GLAND THYROID,,,46,2018-11-23,46
20214751,LB,20214751-153,61,T3THY,Triiodothyronine/Thyroid,,7.08,ng/mg thyroid,7.08,7.08,ng/mg thyroid,,,GLAND THYROID,,,46,2018-11-23,46
20214751,LB,20214751-153,62,T4THY,Thyroxine/Thyroid,,97.4,ng/mg thyroid,97.4,97.4,ng/mg thyroid,,,GLAND THYROID,,,46,2018-11-23,46
20214751,LB,20214751-153,63,T3,Triiodothyronine,,120,ng/thyroid,120,120,ng/thyroid,,,GLAND THYROID,,,46,2018-11-23,46
20214751,LB,20214751-153,64,T4,Thyroxine,,1655,ng/thyroid,1655,1655,ng/thyroid,,,GLAND THYROID,,,46,2018-11-23,46
20214751,LB,20214751-153,65,IODIDETH,Iodide/Thyroid,,160,ng/mg thyroid,160,160,ng/mg thyroid,,,GLAND THYROID,,,46,2018-11-23,46
20214751,LB,20214751-153,66,IODIDE,Iodide,,2725,ng/thyroid,2725,2725,ng/thyroid,,,GLAND THYROID,,,46,2018-11-23,46
20214751,LB,20214751-153,67,TSH,Thyrotropin,,0.26,ng/mL,0.26,0.26,ng/mL,,,SERUM,,,15,2018-10-23,15
20214751,LB,20214751-153,68,T3,Triiodothyronine,,6.13,ng/mL,6.13,6.13,ng/mL,,,SERUM,,,15,2018-10-23,15
20214751,LB,20214751-153,69,T4,Thyroxine,,186,ng/mL,186,186,ng/mL,,,SERUM,,,15,2018-10-23,15
20214751,LB,20214751-153,70,TSH,Thyrotropin,,0.40,ng/mL,0.40,0.4,ng/mL,,,SERUM,,,28,2018-11-05,28
20214751,LB,20214751-153,71,T3,Triiodothyronine,,5.62,ng/mL,5.62,5.62,ng/mL,,,SERUM,,,28,2018-11-05,28
20214751,LB,20214751-153,72,T4,Thyroxine,,155,ng/mL,155,155,ng/mL,,,SERUM,,,28,2018-11-05,28
20214751,LB,20214751-153,73,TSH,Thyrotropin,,0.49,ng/mL,0.49,0.49,ng/mL,,,SERUM,,,46,2018-11-23,46
20214751,LB,20214751-153,74,T3,Triiodothyronine,,6.69,ng/mL,6.69,6.69,ng/mL,,,SERUM,,,46,2018-11-23,46
20214751,LB,20214751-153,75,T4,Thyroxine,,356,ng/mL,356,356,ng/mL,,,SERUM,,,46,2018-11-23,46
20214751,LB,20214751-154,76,ALT,Alanine Aminotransferase,Serum Chemistry,31.0,U/L,31.0,31,U/L,,,,,,46,2018-11-23,46
20214751,LB,20214751-154,77,AST,Aspartate Aminotransferase,Serum Chemistry,62.0,U/L,62.0,62,U/L,,,,,,46,2018-11-23,46
20214751,LB,20214751-154,78,CA,Calcium,Serum Chemistry,2.7,mg/dL,2.7,2.7,mg/dL,,,,,,46,2018-11-23,46
20214751,LB,20214751-154,79,CHOL,Cholesterol,Serum Chemistry,71.0,mg/dL,71.0,71,mg/dL,,,,,,46,2018-11-23,46
20214751,LB,20214751-154,80,CREAT,Creatinine,Serum Chemistry,0.5,mg/dL,0.5,0.5,mg/dL,,,,,,46,2018-11-23,46
20214751,LB,20214751-154,81,PROT,Protein,Serum Chemistry,7.3,g/dL,7.3,7.3,g/dL,,,,,,46,2018-11-23,46
20214751,LB,20214751-154,82,INIO,Inorganic Iodine,Biomarker,75,ug/L,75,75,ug/L,,,,,,15,2018-10-23,15
20214751,LB,20214751-154,83,INIO,Inorganic Iodine,Biomarker,84,ug/L,84,84,ug/L,,,,,,28,2018-11-05,28
20214751,LB,20214751-154,84,INIO,Inorganic Iodine,Biomarker,98,ug/L,98,98,ug/L,,,,,,46,2018-11-23,46
20214751,LB,20214751-154,85,FE,Follicular epithelium %,Histology,46,%,46,46,%,,,GLAND THYROID,,,46,2018-11-23,46
20214751,LB,20214751-154,86,T3THY,Triiodothyronine/Thyroid,,6.10,ng/mg thyroid,6.10,6.1,ng/mg thyroid,,,GLAND THYROID,,,46,2018-11-23,46
20214751,LB,20214751-154,87,T4THY,Thyroxine/Thyroid,,110.7,ng/mg thyroid,110.7,110.7,ng/mg thyroid,,,GLAND THYROID,,,46,2018-11-23,46
20214751,LB,20214751-154,88,T3,Triiodothyronine,,55,ng/thyroid,55,55,ng/thyroid,,,GLAND THYROID,,,46,2018-11-23,46
20214751,LB,20214751-154,89,T4,Thyroxine,,997,ng/thyroid,997,997,ng/thyroid,,,GLAND THYROID,,,46,2018-11-23,46
20214751,LB,20214751-154,90,IODIDETH,Iodide/Thyroid,,222,ng/mg thyroid,222,222,ng/mg thyroid,,,GLAND THYROID,,,46,2018-11-23,46
20214751,LB,20214751-154,91,IODIDE,Iodide,,2002,ng/thyroid,2002,2002,ng/thyroid,,,GLAND THYROID,,,46,2018-11-23,46
20214751,LB,20214751-154,92,TSH,Thyrotropin,,0.39,ng/mL,0.39,0.39,ng/mL,,,SERUM,,,15,2018-10-23,15
20214751,LB,20214751-154,93,T3,Triiodothyronine,,7.22,ng/mL,7.22,7.22,ng/mL,,,SERUM,,,15,2018-10-23,15
20214751,LB,20214751-154,94,T4,Thyroxine,,281,ng/mL,281,281,ng/mL,,,SERUM,,,15,2018-10-23,15
20214751,LB,20214751-154,95,TSH,Thyrotropin,,0.61,ng/mL,0.61,0.61,ng/mL,,,SERUM,,,28,2018-11-05,28
20214751,LB,20214751-154,96,T3,Triiodothyronine,,8.95,ng/mL,8.95,8.95,ng/mL,,,SERUM,,,28,2018-11-05,28
20214751,LB,20214751-154,97,T4,Thyroxine,,291,ng/mL,291,291,ng/mL,,,SERUM,,,28,2018-11-05,28
20214751,LB,20214751-154,98,TSH,Thyrotropin,,0.63,ng/mL,0.63,0.63,ng/mL,,,SERUM,,,46,2018-11-23,46
20214751,LB,20214751-154,99,T3,Triiodothyronine,,6.14,ng/mL,6.14,6.14,ng/mL,,,SERUM,,,46,2018-11-23,46
20214751,LB,20214751-154,100,T4,Thyroxine,,383,ng/mL,383,383,ng/mL,,,SERUM,,,46,2018-11-23,46
20214751,LB,20214751-155,101,ALT,Alanine Aminotransferase,Serum Chemistry,33.0,U/L,33.0,33,U/L,,,,,,46,2018-11-23,46
20214751,LB,20214751-155,102,AST,Aspartate Aminotransferase,Serum Chemistry,72.0,U/L,72.0,72,U/L,,,,,,46,2018-11-23,46
20214751,LB,20214751-155,103,CA,Calcium,Serum Chemistry,2.5,mg/dL,2.5,2.5,mg/dL,,,,,,46,2018-11-23,46
20214751,LB,20214751-155,104,CHOL,Cholesterol,Serum Chemistry,47.0,mg/dL,47.0,47,mg/dL,,,,,,46,2018-11-23,46
20214751,LB,20214751-155,105,CREAT,Creatinine,Serum Chemistry,0.5,mg/dL,0.5,0.5,mg/dL,,,,,,46,2018-11-23,46
20214751,LB,20214751-155,106,PROT,Protein,Serum Chemistry,6.0,g/dL,6.0,6,g/dL,,,,,,46,2018-11-23,46
20214751,LB,20214751-155,107,INIO,Inorganic Iodine,Biomarker,110,ug/L,110,110,ug/L,,,,,,15,2018-10-23,15
20214751,LB,20214751-155,108,INIO,Inorganic Iodine,Biomarker,76,ug/L,76,76,ug/L,,,,,,28,2018-11-05,28
20214751,LB,20214751-155,109,INIO,Inorganic Iodine,Biomarker,104,ug/L,104,104,ug/L,,,,,,46,2018-11-23,46
20214751,LB,20214751-155,110,FE,Follicular epithelium %,Histology,40,%,40,40,%,,,GLAND THYROID,,,46,2018-11-23,46
20214751,LB,20214751-155,111,T3THY,Triiodothyronine/Thyroid,,15.54,ng/mg thyroid,15.54,15.54,ng/mg thyroid,,,GLAND THYROID,,,46,2018-11-23,46
20214751,LB,20214751-155,112,T4THY,Thyroxine/Thyroid,,308.9,ng/mg thyroid,308.9,308.9,ng/mg thyroid,,,GLAND THYROID,,,46,2018-11-23,46
20214751,LB,20214751-155,113,T3,Triiodothyronine,,233,ng/thyroid,233,233,ng/thyroid,,,GLAND THYROID,,,46,2018-11-23,46
20214751,LB,20214751-155,114,T4,Thyroxine,,4634,ng/thyroid,4634,4634,ng/thyroid,,,GLAND THYROID,,,46,2018-11-23,46
20214751,LB,20214751-155,115,IODIDETH,Iodide/Thyroid,,289,ng/mg thyroid,289,289,ng/mg thyroid,,,GLAND THYROID,,,46,2018-11-23,46
20214751,LB,20214751-155,116,IODIDE,Iodide,,4335,ng/thyroid,4335,4335,ng/thyroid,,,GLAND THYROID,,,46,2018-11-23,46
20214751,LB,20214751-155,117,TSH,Thyrotropin,,0.56,ng/mL,0.56,0.56,ng/mL,,,SERUM,,,15,2018-10-23,15
20214751,LB,20214751-155,118,T3,Triiodothyronine,,4.91,ng/mL,4.91,4.91,ng/mL,,,SERUM,,,15,2018-10-23,15
20214751,LB,20214751-155,119,T4,Thyroxine,,249,ng/mL,249,249,ng/mL,,,SERUM,,,15,2018-10-23,15
20214751,LB,20214751-155,120,TSH,Thyrotropin,,0.98,ng/mL,0.98,0.98,ng/mL,,,SERUM,,,28,2018-11-05,28
20214751,LB,20214751-155,121,T3,Triiodothyronine,,5.40,ng/mL,5.40,5.4,ng/mL,,,SERUM,,,28,2018-11-05,28
20214751,LB,20214751-155,122,T4,Thyroxine,,209,ng/mL,209,209,ng/mL,,,SERUM,,,28,2018-11-05,28
20214751,LB,20214751-155,123,TSH,Thyrotropin,,0.68,ng/mL,0.68,0.68,ng/mL,,,SERUM,,,46,2018-11-23,46
20214751,LB,20214751-155,124,T3,Triiodothyronine,,5.49,ng/mL,5.49,5.49,ng/mL,,,SERUM,,,46,2018-11-23,46
20214751,LB,20214751-155,125,T4,Thyroxine,,278,ng/mL,278,278,ng/mL,,,SERUM,,,46,2018-11-23,46
20214751,LB,20214751-156,126,ALT,Alanine Aminotransferase,Serum Chemistry,40.0,U/L,40.0,40,U/L,,,,,,46,2018-11-23,46
20214751,LB,20214751-156,127,AST,Aspartate Aminotransferase,Serum Chemistry,86.0,U/L,86.0,86,U/L,,,,,,46,2018-11-23,46
20214751,LB,20214751-156,128,CA,Calcium,Serum Chemistry,2.7,mg/dL,2.7,2.7,mg/dL,,,,,,46,2018-11-23,46
20214751,LB,20214751-156,129,CHOL,Cholesterol,Serum Chemistry,60.0,mg/dL,60.0,60,mg/dL,,,,,,46,2018-11-23,46
20214751,LB,20214751-156,130,INIO,Inorganic Iodine,Biomarker,85,ug/L,85,85,ug/L,,,,,,15,2018-10-23,15
20214751,LB,20214751-156,131,INIO,Inorganic Iodine,Biomarker,69,ug/L,69,69,ug/L,,,,,,28,2018-11-05,28
20214751,LB,20214751-156,132,INIO,Inorganic Iodine,Biomarker,89,ug/L,89,89,ug/L,,,,,,46,2018-11-23,46
20214751,LB,20214751-156,133,FE,Follicular epithelium %,Histology,36,%,36,36,%,,,GLAND THYROID,,,46,2018-11-23,46
20214751,LB,20214751-156,134,T3THY,Triiodothyronine/Thyroid,,11.73,ng/mg thyroid,11.73,11.73,ng/mg thyroid,,,GLAND THYROID,,,46,2018-11-23,46
20214751,LB,20214751-156,135,T4THY,Thyroxine/Thyroid,,352.8,ng/mg thyroid,352.8,352.8,ng/mg thyroid,,,GLAND THYROID,,,46,2018-11-23,46
20214751,LB,20214751-156,136,T3,Triiodothyronine,,164,ng/thyroid,164,164,ng/thyroid,,,GLAND THYROID,,,46,2018-11-23,46
20214751,LB,20214751-156,137,T4,Thyroxine,,4940,ng/thyroid,4940,4940,ng/thyroid,,,GLAND THYROID,,,46,2018-11-23,46
20214751,LB,20214751-156,138,IODIDETH,Iodide/Thyroid,,313,ng/mg thyroid,313,313,ng/mg thyroid,,,GLAND THYROID,,,46,2018-11-23,46
20214751,LB,20214751-156,139,IODIDE,Iodide,,4380,ng/thyroid,4380,4380,ng/thyroid,,,GLAND THYROID,,,46,2018-11-23,46
20214751,LB,20214751-156,140,TSH,Thyrotropin,,0.43,ng/mL,0.43,0.43,ng/mL,,,SERUM,,,15,2018-10-23,15
20214751,LB,20214751-156,141,T3,Triiodothyronine,,6.12,ng/mL,6.12,6.12,ng/mL,,,SERUM,,,15,2018-10-23,15
20214751,LB,20214751-156,142,T4,Thyroxine,,307,ng/mL,307,307,ng/mL,,,SERUM,,,15,2018-10-23,15
20214751,LB,20214751-156,143,TSH,Thyrotropin,,0.75,ng/mL,0.75,0.75,ng/mL,,,SERUM,,,28,2018-11-05,28
20214751,LB,20214751-156,144,T3,Triiodothyronine,,5.63,ng/mL,5.63,5.63,ng/mL,,,SERUM,,,28,2018-11-05,28
20214751,LB,20214751-156,145,T4,Thyroxine,,229,ng/mL,229,229,ng/mL,,,SERUM,,,28,2018-11-05,28
20214751,LB,20214751-156,146,TSH,Thyrotropin,,0.39,ng/mL,0.39,0.39,ng/mL,,,SERUM,,,46,2018-11-23,46
20214751,LB,20214751-156,147,T3,Triiodothyronine,,6.69,ng/mL,6.69,6.69,ng/mL,,,SERUM,,,46,2018-11-23,46
20214751,LB,20214751-156,148,T4,Thyroxine,,205,ng/mL,205,205,ng/mL,,,SERUM,,,46,2018-11-23,46
20214751,LB,20214751-251,149,ALT,Alanine Aminotransferase,Serum Chemistry,37.0,U/L,37.0,37,U/L,,,,,,46,2018-11-23,46
20214751,LB,20214751-251,150,AST,Aspartate Aminotransferase,Serum Chemistry,76.0,U/L,76.0,76,U/L,,,,,,46,2018-11-23,46
20214751,LB,20214751-251,151,CA,Calcium,Serum Chemistry,2.5,mg/dL,2.5,2.5,mg/dL,,,,,,46,2018-11-23,46
20214751,LB,20214751-251,152,CHOL,Cholesterol,Serum Chemistry,55.0,mg/dL,55.0,55,mg/dL,,,,,,46,2018-11-23,46
20214751,LB,20214751-251,153,CREAT,Creatinine,Serum Chemistry,0.6,mg/dL,0.6,0.6,mg/dL,,,,,,46,2018-11-23,46
20214751,LB,20214751-251,154,PROT,Protein,Serum Chemistry,6.2,g/dL,6.2,6.2,g/dL,,,,,,46,2018-11-23,46
20214751,LB,20214751-251,155,INIO,Inorganic Iodine,Biomarker,85,ug/L,85,85,ug/L,,,,,,15,2018-10-23,15
20214751,LB,20214751-251,156,INIO,Inorganic Iodine,Biomarker,72,ug/L,72,72,ug/L,,,,,,28,2018-11-05,28
20214751,LB,20214751-251,157,INIO,Inorganic Iodine,Biomarker,72,ug/L,72,72,ug/L,,,,,,46,2018-11-23,46
20214751,LB,20214751-251,158,FE,Follicular epithelium %,Histology,65,%,65,65,%,,,GLAND THYROID,,,46,2018-11-23,46
20214751,LB,20214751-251,159,T3THY,Triiodothyronine/Thyroid,,1.02,ng/mg thyroid,1.02,1.02,ng/mg thyroid,,,GLAND THYROID,,,46,2018-11-23,46
20214751,LB,20214751-251,160,T4THY,Thyroxine/Thyroid,,5.4,ng/mg thyroid,5.4,5.4,ng/mg thyroid,,,GLAND THYROID,,,46,2018-11-23,46
20214751,LB,20214751-251,161,T3,Triiodothyronine,,33,ng/thyroid,33,33,ng/thyroid,,,GLAND THYROID,,,46,2018-11-23,46
20214751,LB,20214751-251,162,T4,Thyroxine,,174,ng/thyroid,174,174,ng/thyroid,,,GLAND THYROID,,,46,2018-11-23,46
20214751,LB,20214751-251,163,IODIDETH,Iodide/Thyroid,,12,ng/mg thyroid,12,12,ng/mg thyroid,,,GLAND THYROID,,,46,2018-11-23,46
20214751,LB,20214751-251,164,IODIDE,Iodide,,395,ng/thyroid,395,395,ng/thyroid,,,GLAND THYROID,,,46,2018-11-23,46
20214751,LB,20214751-251,165,TSH,Thyrotropin,,2.21,ng/mL,2.21,2.21,ng/mL,,,SERUM,,,15,2018-10-23,15
20214751,LB,20214751-251,166,T3,Triiodothyronine,,5.72,ng/mL,5.72,5.72,ng/mL,,,SERUM,,,15,2018-10-23,15
20214751,LB,20214751-251,167,T4,Thyroxine,,283,ng/mL,283,283,ng/mL,,,SERUM,,,15,2018-10-23,15
20214751,LB,20214751-251,168,TSH,Thyrotropin,,0.82,ng/mL,0.82,0.82,ng/mL,,,SERUM,,,28,2018-11-05,28
20214751,LB,20214751-251,169,T3,Triiodothyronine,,8.14,ng/mL,8.14,8.14,ng/mL,,,SERUM,,,28,2018-11-05,28
20214751,LB,20214751-251,170,T4,Thyroxine,,213,ng/mL,213,213,ng/mL,,,SERUM,,,28,2018-11-05,28
20214751,LB,20214751-251,171,TSH,Thyrotropin,,1.96,ng/mL,1.96,1.96,ng/mL,,,SERUM,,,46,2018-11-23,46
20214751,LB,20214751-251,172,T3,Triiodothyronine,,4.76,ng/mL,4.76,4.76,ng/mL,,,SERUM,,,46,2018-11-23,46
20214751,LB,20214751-251,173,T4,Thyroxine,,217,ng/mL,217,217,ng/mL,,,SERUM,,,46,2018-11-23,46
20214751,LB,20214751-252,174,ALT,Alanine Aminotransferase,Serum Chemistry,43.0,U/L,43.0,43,U/L,,,,,,46,2018-11-23,46
20214751,LB,20214751-252,175,AST,Aspartate Aminotransferase,Serum Chemistry,83.0,U/L,83.0,83,U/L,,,,,,46,2018-11-23,46
20214751,LB,20214751-252,176,CA,Calcium,Serum Chemistry,2.6,mg/dL,2.6,2.6,mg/dL,,,,,,46,2018-11-23,46
20214751,LB,20214751-252,177,CHOL,Cholesterol,Serum Chemistry,63.0,mg/dL,63.0,63,mg/dL,,,,,,46,2018-11-23,46
20214751,LB,20214751-252,178,CREAT,Creatinine,Serum Chemistry,0.6,mg/dL,0.6,0.6,mg/dL,,,,,,46,2018-11-23,46
20214751,LB,20214751-252,179,PROT,Protein,Serum Chemistry,6.2,g/dL,6.2,6.2,g/dL,,,,,,46,2018-11-23,46
20214751,LB,20214751-252,180,INIO,Inorganic Iodine,Biomarker,99,ug/L,99,99,ug/L,,,,,,15,2018-10-23,15
20214751,LB,20214751-252,181,INIO,Inorganic Iodine,Biomarker,73,ug/L,73,73,ug/L,,,,,,28,2018-11-05,28
20214751,LB,20214751-252,182,INIO,Inorganic Iodine,Biomarker,85,ug/L,85,85,ug/L,,,,,,46,2018-11-23,46
20214751,LB,20214751-252,183,FE,Follicular epithelium %,Histology,48,%,48,48,%,,,GLAND THYROID,,,46,2018-11-23,46
20214751,LB,20214751-252,184,T3THY,Triiodothyronine/Thyroid,,1.48,ng/mg thyroid,1.48,1.48,ng/mg thyroid,,,GLAND THYROID,,,46,2018-11-23,46
20214751,LB,20214751-252,185,T4THY,Thyroxine/Thyroid,,11.0,ng/mg thyroid,11.0,11,ng/mg thyroid,,,GLAND THYROID,,,46,2018-11-23,46
20214751,LB,20214751-252,186,T3,Triiodothyronine,,34,ng/thyroid,34,34,ng/thyroid,,,GLAND THYROID,,,46,2018-11-23,46
20214751,LB,20214751-252,187,T4,Thyroxine,,253,ng/thyroid,253,253,ng/thyroid,,,GLAND THYROID,,,46,2018-11-23,46
20214751,LB,20214751-252,188,IODIDETH,Iodide/Thyroid,,23,ng/mg thyroid,23,23,ng/mg thyroid,,,GLAND THYROID,,,46,2018-11-23,46
20214751,LB,20214751-252,189,IODIDE,Iodide,,529,ng/thyroid,529,529,ng/thyroid,,,GLAND THYROID,,,46,2018-11-23,46
20214751,LB,20214751-252,190,TSH,Thyrotropin,,0.75,ng/mL,0.75,0.75,ng/mL,,,SERUM,,,15,2018-10-23,15
20214751,LB,20214751-252,191,T3,Triiodothyronine,,8.64,ng/mL,8.64,8.64,ng/mL,,,SERUM,,,15,2018-10-23,15
20214751,LB,20214751-252,192,T4,Thyroxine,,156,ng/mL,156,156,ng/mL,,,SERUM,,,15,2018-10-23,15
20214751,LB,20214751-252,193,TSH,Thyrotropin,,1.05,ng/mL,1.05,1.05,ng/mL,,,SERUM,,,28,2018-11-05,28
20214751,LB,20214751-252,194,T3,Triiodothyronine,,6.31,ng/mL,6.31,6.31,ng/mL,,,SERUM,,,28,2018-11-05,28
20214751,LB,20214751-252,195,T4,Thyroxine,,159,ng/mL,159,159,ng/mL,,,SERUM,,,28,2018-11-05,28
20214751,LB,20214751-252,196,TSH,Thyrotropin,,1.11,ng/mL,1.11,1.11,ng/mL,,,SERUM,,,46,2018-11-23,46
20214751,LB,20214751-252,197,T3,Triiodothyronine,,3.12,ng/mL,3.12,3.12,ng/mL,,,SERUM,,,46,2018-11-23,46
20214751,LB,20214751-252,198,T4,Thyroxine,,129,ng/mL,129,129,ng/mL,,,SERUM,,,46,2018-11-23,46
20214751,LB,20214751-253,199,ALT,Alanine Aminotransferase,Serum Chemistry,34.0,U/L,34.0,34,U/L,,,,,,46,2018-11-23,46
20214751,LB,20214751-253,200,AST,Aspartate Aminotransferase,Serum Chemistry,74.0,U/L,74.0,74,U/L,,,,,,46,2018-11-23,46
20214751,LB,20214751-253,201,CA,Calcium,Serum Chemistry,2.5,mg/dL,2.5,2.5,mg/dL,,,,,,46,2018-11-23,46
20214751,LB,20214751-253,202,CHOL,Cholesterol,Serum Chemistry,57.0,mg/dL,57.0,57,mg/dL,,,,,,46,2018-11-23,46
20214751,LB,20214751-253,203,CREAT,Creatinine,Serum Chemistry,0.6,mg/dL,0.6,0.6,mg/dL,,,,,,46,2018-11-23,46
20214751,LB,20214751-253,204,PROT,Protein,Serum Chemistry,6.3,g/dL,6.3,6.3,g/dL,,,,,,46,2018-11-23,46
20214751,LB,20214751-253,205,INIO,Inorganic Iodine,Biomarker,74,ug/L,74,74,ug/L,,,,,,15,2018-10-23,15
20214751,LB,20214751-253,206,INIO,Inorganic Iodine,Biomarker,79,ug/L,79,79,ug/L,,,,,,28,2018-11-05,28
20214751,LB,20214751-253,207,INIO,Inorganic Iodine,Biomarker,98,ug/L,98,98,ug/L,,,,,,46,2018-11-23,46
20214751,LB,20214751-253,208,FE,Follicular epithelium %,Histology,49,%,49,49,%,,,GLAND THYROID,,,46,2018-11-23,46
20214751,LB,20214751-253,209,T3THY,Triiodothyronine/Thyroid,,1.47,ng/mg thyroid,1.47,1.47,ng/mg thyroid,,,GLAND THYROID,,,46,2018-11-23,46
20214751,LB,20214751-253,210,T4THY,Thyroxine/Thyroid,,14.8,ng/mg thyroid,14.8,14.8,ng/mg thyroid,,,GLAND THYROID,,,46,2018-11-23,46
20214751,LB,20214751-253,211,T3,Triiodothyronine,,31,ng/thyroid,31,31,ng/thyroid,,,GLAND THYROID,,,46,2018-11-23,46
20214751,LB,20214751-253,212,T4,Thyroxine,,311,ng/thyroid,311,311,ng/thyroid,,,GLAND THYROID,,,46,2018-11-23,46
20214751,LB,20214751-253,213,IODIDETH,Iodide/Thyroid,,21,ng/mg thyroid,21,21,ng/mg thyroid,,,GLAND THYROID,,,46,2018-11-23,46
20214751,LB,20214751-253,214,IODIDE,Iodide,,431,ng/thyroid,431,431,ng/thyroid,,,GLAND THYROID,,,46,2018-11-23,46
20214751,LB,20214751-253,215,TSH,Thyrotropin,,2.53,ng/mL,2.53,2.53,ng/mL,,,SERUM,,,15,2018-10-23,15
20214751,LB,20214751-253,216,T3,Triiodothyronine,,6.11,ng/mL,6.11,6.11,ng/mL,,,SERUM,,,15,2018-10-23,15
20214751,LB,20214751-253,217,T4,Thyroxine,,151,ng/mL,151,151,ng/mL,,,SERUM,,,15,2018-10-23,15
20214751,LB,20214751-253,218,TSH,Thyrotropin,,0.88,ng/mL,0.88,0.88,ng/mL,,,SERUM,,,28,2018-11-05,28
20214751,LB,20214751-253,219,T3,Triiodothyronine,,6.42,ng/mL,6.42,6.42,ng/mL,,,SERUM,,,28,2018-11-05,28
20214751,LB,20214751-253,220,T4,Thyroxine,,148,ng/mL,148,148,ng/mL,,,SERUM,,,28,2018-11-05,28
20214751,LB,20214751-253,221,TSH,Thyrotropin,,0.81,ng/mL,0.81,0.81,ng/mL,,,SERUM,,,46,2018-11-23,46
20214751,LB,20214751-253,222,T3,Triiodothyronine,,5.80,ng/mL,5.80,5.8,ng/mL,,,SERUM,,,46,2018-11-23,46
20214751,LB,20214751-253,223,T4,Thyroxine,,168,ng/mL,168,168,ng/mL,,,SERUM,,,46,2018-11-23,46
20214751,LB,20214751-254,224,ALT,Alanine Aminotransferase,Serum Chemistry,37.0,U/L,37.0,37,U/L,,,,,,46,2018-11-23,46
20214751,LB,20214751-254,225,AST,Aspartate Aminotransferase,Serum Chemistry,86.0,U/L,86.0,86,U/L,,,,,,46,2018-11-23,46
20214751,LB,20214751-254,226,CA,Calcium,Serum Chemistry,2.6,mg/dL,2.6,2.6,mg/dL,,,,,,46,2018-11-23,46
20214751,LB,20214751-254,227,CHOL,Cholesterol,Serum Chemistry,52.0,mg/dL,52.0,52,mg/dL,,,,,,46,2018-11-23,46
20214751,LB,20214751-254,228,CREAT,Creatinine,Serum Chemistry,0.6,mg/dL,0.6,0.6,mg/dL,,,,,,46,2018-11-23,46
20214751,LB,20214751-254,229,PROT,Protein,Serum Chemistry,6.2,g/dL,6.2,6.2,g/dL,,,,,,46,2018-11-23,46
20214751,LB,20214751-254,230,INIO,Inorganic Iodine,Biomarker,95,ug/L,95,95,ug/L,,,,,,15,2018-10-23,15
20214751,LB,20214751-254,231,INIO,Inorganic Iodine,Biomarker,62,ug/L,62,62,ug/L,,,,,,28,2018-11-05,28
20214751,LB,20214751-254,232,INIO,Inorganic Iodine,Biomarker,89,ug/L,89,89,ug/L,,,,,,46,2018-11-23,46
20214751,LB,20214751-254,233,FE,Follicular epithelium %,Histology,50,%,50,50,%,,,GLAND THYROID,,,46,2018-11-23,46
20214751,LB,20214751-254,234,T3THY,Triiodothyronine/Thyroid,,0.99,ng/mg thyroid,0.99,0.99,ng/mg thyroid,,,GLAND THYROID,,,46,2018-11-23,46
20214751,LB,20214751-254,235,T4THY,Thyroxine/Thyroid,,6.8,ng/mg thyroid,6.8,6.8,ng/mg thyroid,,,GLAND THYROID,,,46,2018-11-23,46
20214751,LB,20214751-254,236,T3,Triiodothyronine,,26,ng/thyroid,26,26,ng/thyroid,,,GLAND THYROID,,,46,2018-11-23,46
20214751,LB,20214751-254,237,T4,Thyroxine,,176,ng/thyroid,176,176,ng/thyroid,,,GLAND THYROID,,,46,2018-11-23,46
20214751,LB,20214751-254,238,IODIDETH,Iodide/Thyroid,,9,ng/mg thyroid,9,9,ng/mg thyroid,,,GLAND THYROID,,,46,2018-11-23,46
20214751,LB,20214751-254,239,IODIDE,Iodide,,222,ng/thyroid,222,222,ng/thyroid,,,GLAND THYROID,,,46,2018-11-23,46
20214751,LB,20214751-254,240,TSH,Thyrotropin,,1.48,ng/mL,1.48,1.48,ng/mL,,,SERUM,,,15,2018-10-23,15
20214751,LB,20214751-254,241,T3,Triiodothyronine,,5.15,ng/mL,5.15,5.15,ng/mL,,,SERUM,,,15,2018-10-23,15
20214751,LB,20214751-254,242,T4,Thyroxine,,194,ng/mL,194,194,ng/mL,,,SERUM,,,15,2018-10-23,15
20214751,LB,20214751-254,243,TSH,Thyrotropin,,5.39,ng/mL,5.39,5.39,ng/mL,,,SERUM,,,28,2018-11-05,28
20214751,LB,20214751-254,244,T3,Triiodothyronine,,6.62,ng/mL,6.62,6.62,ng/mL,,,SERUM,,,28,2018-11-05,28
20214751,LB,20214751-254,245,T4,Thyroxine,,194,ng/mL,194,194,ng/mL,,,SERUM,,,28,2018-11-05,28
20214751,LB,20214751-254,246,TSH,Thyrotropin,,1.93,ng/mL,1.93,1.93,ng/mL,,,SERUM,,,46,2018-11-23,46
20214751,LB,20214751-254,247,T3,Triiodothyronine,,6.41,ng/mL,6.41,6.41,ng/mL,,,SERUM,,,46,2018-11-23,46
20214751,LB,20214751-254,248,T4,Thyroxine,,192,ng/mL,192,192,ng/mL,,,SERUM,,,46,2018-11-23,46
20214751,LB,20214751-255,249,ALT,Alanine Aminotransferase,Serum Chemistry,25.0,U/L,25.0,25,U/L,,,,,,46,2018-11-23,46
20214751,LB,20214751-255,250,AST,Aspartate Aminotransferase,Serum Chemistry,60.0,U/L,60.0,60,U/L,,,,,,46,2018-11-23,46
20214751,LB,20214751-255,251,CA,Calcium,Serum Chemistry,2.6,mg/dL,2.6,2.6,mg/dL,,,,,,46,2018-11-23,46
20214751,LB,20214751-255,252,CHOL,Cholesterol,Serum Chemistry,65.0,mg/dL,65.0,65,mg/dL,,,,,,46,2018-11-23,46
20214751,LB,20214751-255,253,CREAT,Creatinine,Serum Chemistry,0.6,mg/dL,0.6,0.6,mg/dL,,,,,,46,2018-11-23,46
20214751,LB,20214751-255,254,PROT,Protein,Serum Chemistry,6.5,g/dL,6.5,6.5,g/dL,,,,,,46,2018-11-23,46
20214751,LB,20214751-255,255,INIO,Inorganic Iodine,Biomarker,98,ug/L,98,98,ug/L,,,,,,15,2018-10-23,15
20214751,LB,20214751-255,256,INIO,Inorganic Iodine,Biomarker,72,ug/L,72,72,ug/L,,,,,,28,2018-11-05,28
20214751,LB,20214751-255,257,INIO,Inorganic Iodine,Biomarker,87,ug/L,87,87,ug/L,,,,,,46,2018-11-23,46
20214751,LB,20214751-255,258,FE,Follicular epithelium %,Histology,49,%,49,49,%,,,GLAND THYROID,,,46,2018-11-23,46
20214751,LB,20214751-255,259,T3THY,Triiodothyronine/Thyroid,,2.20,ng/mg thyroid,2.20,2.2,ng/mg thyroid,,,GLAND THYROID,,,46,2018-11-23,46
20214751,LB,20214751-255,260,T4THY,Thyroxine/Thyroid,,22.2,ng/mg thyroid,22.2,22.2,ng/mg thyroid,,,GLAND THYROID,,,46,2018-11-23,46
20214751,LB,20214751-255,261,T3,Triiodothyronine,,66,ng/thyroid,66,66,ng/thyroid,,,GLAND THYROID,,,46,2018-11-23,46
20214751,LB,20214751-255,262,T4,Thyroxine,,665,ng/thyroid,665,665,ng/thyroid,,,GLAND THYROID,,,46,2018-11-23,46
20214751,LB,20214751-255,263,IODIDETH,Iodide/Thyroid,,28,ng/mg thyroid,28,28,ng/mg thyroid,,,GLAND THYROID,,,46,2018-11-23,46
20214751,LB,20214751-255,264,IODIDE,Iodide,,845,ng/thyroid,845,845,ng/thyroid,,,GLAND THYROID,,,46,2018-11-23,46
20214751,LB,20214751-255,265,TSH,Thyrotropin,,0.61,ng/mL,0.61,0.61,ng/mL,,,SERUM,,,15,2018-10-23,15
20214751,LB,20214751-255,266,T3,Triiodothyronine,,6.37,ng/mL,6.37,6.37,ng/mL,,,SERUM,,,15,2018-10-23,15
20214751,LB,20214751-255,267,T4,Thyroxine,,176,ng/mL,176,176,ng/mL,,,SERUM,,,15,2018-10-23,15
20214751,LB,20214751-255,268,TSH,Thyrotropin,,0.94,ng/mL,0.94,0.94,ng/mL,,,SERUM,,,28,2018-11-05,28
20214751,LB,20214751-255,269,T3,Triiodothyronine,,5.80,ng/mL,5.80,5.8,ng/mL,,,SERUM,,,28,2018-11-05,28
20214751,LB,20214751-255,270,T4,Thyroxine,,180,ng/mL,180,180,ng/mL,,,SERUM,,,28,2018-11-05,28
20214751,LB,20214751-255,271,TSH,Thyrotropin,,1.34,ng/mL,1.34,1.34,ng/mL,,,SERUM,,,46,2018-11-23,46
20214751,LB,20214751-255,272,T3,Triiodothyronine,,5.87,ng/mL,5.87,5.87,ng/mL,,,SERUM,,,46,2018-11-23,46
20214751,LB,20214751-255,273,T4,Thyroxine,,224,ng/mL,224,224,ng/mL,,,SERUM,,,46,2018-11-23,46
20214751,LB,20214751-256,274,ALT,Alanine Aminotransferase,Serum Chemistry,47.0,U/L,47.0,47,U/L,,,,,,46,2018-11-23,46
20214751,LB,20214751-256,275,AST,Aspartate Aminotransferase,Serum Chemistry,82.0,U/L,82.0,82,U/L,,,,,,46,2018-11-23,46
20214751,LB,20214751-256,276,CA,Calcium,Serum Chemistry,2.5,mg/dL,2.5,2.5,mg/dL,,,,,,46,2018-11-23,46
20214751,LB,20214751-256,277,CHOL,Cholesterol,Serum Chemistry,44.0,mg/dL,44.0,44,mg/dL,,,,,,46,2018-11-23,46
20214751,LB,20214751-256,278,CREAT,Creatinine,Serum Chemistry,0.6,mg/dL,0.6,0.6,mg/dL,,,,,,46,2018-11-23,46
20214751,LB,20214751-256,279,PROT,Protein,Serum Chemistry,6.0,g/dL,6.0,6,g/dL,,,,,,46,2018-11-23,46
20214751,LB,20214751-256,280,INIO,Inorganic Iodine,Biomarker,94,ug/L,94,94,ug/L,,,,,,15,2018-10-23,15
20214751,LB,20214751-256,281,INIO,Inorganic Iodine,Biomarker,67,ug/L,67,67,ug/L,,,,,,28,2018-11-05,28
20214751,LB,20214751-256,282,INIO,Inorganic Iodine,Biomarker,104,ug/L,104,104,ug/L,,,,,,46,2018-11-23,46
20214751,LB,20214751-256,283,FE,Follicular epithelium %,Histology,51,%,51,51,%,,,GLAND THYROID,,,46,2018-11-23,46
20214751,LB,20214751-256,284,T3THY,Triiodothyronine/Thyroid,,0.76,ng/mg thyroid,0.76,0.76,ng/mg thyroid,,,GLAND THYROID,,,46,2018-11-23,46
20214751,LB,20214751-256,285,T4THY,Thyroxine/Thyroid,,5.2,ng/mg thyroid,5.2,5.2,ng/mg thyroid,,,GLAND THYROID,,,46,2018-11-23,46
20214751,LB,20214751-256,286,T3,Triiodothyronine,,20,ng/thyroid,20,20,ng/thyroid,,,GLAND THYROID,,,46,2018-11-23,46
20214751,LB,20214751-256,287,T4,Thyroxine,,135,ng/thyroid,135,135,ng/thyroid,,,GLAND THYROID,,,46,2018-11-23,46
20214751,LB,20214751-256,288,IODIDETH,Iodide/Thyroid,,18,ng/mg thyroid,18,18,ng/mg thyroid,,,GLAND THYROID,,,46,2018-11-23,46
20214751,LB,20214751-256,289,IODIDE,Iodide,,470,ng/thyroid,470,470,ng/thyroid,,,GLAND THYROID,,,46,2018-11-23,46
20214751,LB,20214751-256,290,TSH,Thyrotropin,,0.97,ng/mL,0.97,0.97,ng/mL,,,SERUM,,,15,2018-10-23,15
20214751,LB,20214751-256,291,T3,Triiodothyronine,,5.22,ng/mL,5.22,5.22,ng/mL,,,SERUM,,,15,2018-10-23,15
20214751,LB,20214751-256,292,T4,Thyroxine,,125,ng/mL,125,125,ng/mL,,,SERUM,,,15,2018-10-23,15
20214751,LB,20214751-256,293,TSH,Thyrotropin,,1.78,ng/mL,1.78,1.78,ng/mL,,,SERUM,,,28,2018-11-05,28
20214751,LB,20214751-256,294,T3,Triiodothyronine,,7.65,ng/mL,7.65,7.65,ng/mL,,,SERUM,,,28,2018-11-05,28
20214751,LB,20214751-256,295,T4,Thyroxine,,133,ng/mL,133,133,ng/mL,,,SERUM,,,28,2018-11-05,28
20214751,LB,20214751-256,296,TSH,Thyrotropin,,1.31,ng/mL,1.31,1.31,ng/mL,,,SERUM,,,46,2018-11-23,46
20214751,LB,20214751-256,297,T3,Triiodothyronine,,4.78,ng/mL,4.78,4.78,ng/mL,,,SERUM,,,46,2018-11-23,46
20214751,LB,20214751-256,298,T4,Thyroxine,,171,ng/mL,171,171,ng/mL,,,SERUM,,,46,2018-11-23,46
20214751,LB,20214751-351,299,ALT,Alanine Aminotransferase,Serum Chemistry,51,U/L,51,51,U/L,,,,,,46,2018-11-23,46
20214751,LB,20214751-351,300,AST,Aspartate Aminotransferase,Serum Chemistry,93,U/L,93,93,U/L,,,,,,46,2018-11-23,46
20214751,LB,20214751-351,301,CA,Calcium,Serum Chemistry,2.57,mg/dL,2.57,2.57,mg/dL,,,,,,46,2018-11-23,46
20214751,LB,20214751-351,302,CHOL,Cholesterol,Serum Chemistry,59,mg/dL,59,59,mg/dL,,,,,,46,2018-11-23,46
20214751,LB,20214751-351,303,CREAT,Creatinine,Serum Chemistry,0.6,mg/dL,0.6,0.6,mg/dL,,,,,,46,2018-11-23,46
20214751,LB,20214751-351,304,PROT,Protein,Serum Chemistry,6.41,g/dL,6.41,6.41,g/dL,,,,,,46,2018-11-23,46
20214751,LB,20214751-351,305,INIO,Inorganic Iodine,Biomarker,344,ug/L,344,344,ug/L,,,,,,15,2018-10-23,15
20214751,LB,20214751-351,306,INIO,Inorganic Iodine,Biomarker,289,ug/L,289,289,ug/L,,,,,,28,2018-11-05,28
20214751,LB,20214751-351,307,INIO,Inorganic Iodine,Biomarker,873,ug/L,873,873,ug/L,,,,,,46,2018-11-23,46
20214751,LB,20214751-351,308,FE,Follicular epithelium %,Histology,19,%,19,19,%,,,GLAND THYROID,,,46,2018-11-23,46
20214751,LB,20214751-351,309,T3THY,Triiodothyronine/Thyroid,,3.70,ng/mg thyroid,3.70,3.7,ng/mg thyroid,,,GLAND THYROID,,,46,2018-11-23,46
20214751,LB,20214751-351,310,T4THY,Thyroxine/Thyroid,,28.1,ng/mg thyroid,28.1,28.1,ng/mg thyroid,,,GLAND THYROID,,,46,2018-11-23,46
20214751,LB,20214751-351,311,T3,Triiodothyronine,,67,ng/thyroid,67,67,ng/thyroid,,,GLAND THYROID,,,46,2018-11-23,46
20214751,LB,20214751-351,312,T4,Thyroxine,,506,ng/thyroid,506,506,ng/thyroid,,,GLAND THYROID,,,46,2018-11-23,46
20214751,LB,20214751-351,313,IODIDETH,Iodide/Thyroid,,77,ng/mg thyroid,77,77,ng/mg thyroid,,,GLAND THYROID,,,46,2018-11-23,46
20214751,LB,20214751-351,314,IODIDE,Iodide,,1381,ng/thyroid,1381,1381,ng/thyroid,,,GLAND THYROID,,,46,2018-11-23,46
20214751,LB,20214751-351,315,TSH,Thyrotropin,,0.75,ng/mL,0.75,0.75,ng/mL,,,SERUM,,,15,2018-10-23,15
20214751,LB,20214751-351,316,T3,Triiodothyronine,,6.12,ng/mL,6.12,6.12,ng/mL,,,SERUM,,,15,2018-10-23,15
20214751,LB,20214751-351,317,T4,Thyroxine,,200,ng/mL,200,200,ng/mL,,,SERUM,,,15,2018-10-23,15
20214751,LB,20214751-351,318,TSH,Thyrotropin,,1.26,ng/mL,1.26,1.26,ng/mL,,,SERUM,,,28,2018-11-05,28
20214751,LB,20214751-351,319,T3,Triiodothyronine,,5.53,ng/mL,5.53,5.53,ng/mL,,,SERUM,,,28,2018-11-05,28
20214751,LB,20214751-351,320,T4,Thyroxine,,186,ng/mL,186,186,ng/mL,,,SERUM,,,28,2018-11-05,28
20214751,LB,20214751-351,321,TSH,Thyrotropin,,0.78,ng/mL,0.78,0.78,ng/mL,,,SERUM,,,46,2018-11-23,46
20214751,LB,20214751-351,322,T3,Triiodothyronine,,6.24,ng/mL,6.24,6.24,ng/mL,,,SERUM,,,46,2018-11-23,46
20214751,LB,20214751-351,323,T4,Thyroxine,,151,ng/mL,151,151,ng/mL,,,SERUM,,,46,2018-11-23,46
20214751,LB,20214751-352,324,ALT,Alanine Aminotransferase,Serum Chemistry,44,U/L,44,44,U/L,,,,,,46,2018-11-23,46
20214751,LB,20214751-352,325,AST,Aspartate Aminotransferase,Serum Chemistry,74,U/L,74,74,U/L,,,,,,46,2018-11-23,46
20214751,LB,20214751-352,326,CA,Calcium,Serum Chemistry,2.6,mg/dL,2.6,2.6,mg/dL,,,,,,46,2018-11-23,46
20214751,LB,20214751-352,327,CHOL,Cholesterol,Serum Chemistry,48,mg/dL,48,48,mg/dL,,,,,,46,2018-11-23,46
20214751,LB,20214751-352,328,CREAT,Creatinine,Serum Chemistry,0.62,mg/dL,0.62,0.62,mg/dL,,,,,,46,2018-11-23,46
20214751,LB,20214751-352,329,PROT,Protein,Serum Chemistry,6.46,g/dL,6.46,6.46,g/dL,,,,,,46,2018-11-23,46
20214751,LB,20214751-352,330,INIO,Inorganic Iodine,Biomarker,542,ug/L,542,542,ug/L,,,,,,15,2018-10-23,15
20214751,LB,20214751-352,331,INIO,Inorganic Iodine,Biomarker,747,ug/L,747,747,ug/L,,,,,,28,2018-11-05,28
20214751,LB,20214751-352,332,INIO,Inorganic Iodine,Biomarker,701,ug/L,701,701,ug/L,,,,,,46,2018-11-23,46
20214751,LB,20214751-352,333,FE,Follicular epithelium %,Histology,37,%,37,37,%,,,GLAND THYROID,,,46,2018-11-23,46
20214751,LB,20214751-352,334,T3THY,Triiodothyronine/Thyroid,,5.28,ng/mg thyroid,5.28,5.28,ng/mg thyroid,,,GLAND THYROID,,,46,2018-11-23,46
20214751,LB,20214751-352,335,T4THY,Thyroxine/Thyroid,,33.5,ng/mg thyroid,33.5,33.5,ng/mg thyroid,,,GLAND THYROID,,,46,2018-11-23,46
20214751,LB,20214751-352,336,T3,Triiodothyronine,,148,ng/thyroid,148,148,ng/thyroid,,,GLAND THYROID,,,46,2018-11-23,46
20214751,LB,20214751-352,337,T4,Thyroxine,,939,ng/thyroid,939,939,ng/thyroid,,,GLAND THYROID,,,46,2018-11-23,46
20214751,LB,20214751-352,338,IODIDETH,Iodide/Thyroid,,66,ng/mg thyroid,66,66,ng/mg thyroid,,,GLAND THYROID,,,46,2018-11-23,46
20214751,LB,20214751-352,339,IODIDE,Iodide,,1860,ng/thyroid,1860,1860,ng/thyroid,,,GLAND THYROID,,,46,2018-11-23,46
20214751,LB,20214751-352,340,TSH,Thyrotropin,,1.57,ng/mL,1.57,1.57,ng/mL,,,SERUM,,,15,2018-10-23,15
20214751,LB,20214751-352,341,T3,Triiodothyronine,,5.77,ng/mL,5.77,5.77,ng/mL,,,SERUM,,,15,2018-10-23,15
20214751,LB,20214751-352,342,T4,Thyroxine,,238,ng/mL,238,238,ng/mL,,,SERUM,,,15,2018-10-23,15
20214751,LB,20214751-352,343,TSH,Thyrotropin,,1.22,ng/mL,1.22,1.22,ng/mL,,,SERUM,,,28,2018-11-05,28
20214751,LB,20214751-352,344,T3,Triiodothyronine,,6.69,ng/mL,6.69,6.69,ng/mL,,,SERUM,,,28,2018-11-05,28
20214751,LB,20214751-352,345,T4,Thyroxine,,255,ng/mL,255,255,ng/mL,,,SERUM,,,28,2018-11-05,28
20214751,LB,20214751-352,346,TSH,Thyrotropin,,0.63,ng/mL,0.63,0.63,ng/mL,,,SERUM,,,46,2018-11-23,46
20214751,LB,20214751-352,347,T3,Triiodothyronine,,4.09,ng/mL,4.09,4.09,ng/mL,,,SERUM,,,46,2018-11-23,46
20214751,LB,20214751-352,348,T4,Thyroxine,,191,ng/mL,191,191,ng/mL,,,SERUM,,,46,2018-11-23,46
20214751,LB,20214751-353,349,ALT,Alanine Aminotransferase,Serum Chemistry,51,U/L,51,51,U/L,,,,,,46,2018-11-23,46
20214751,LB,20214751-353,350,AST,Aspartate Aminotransferase,Serum Chemistry,88,U/L,88,88,U/L,,,,,,46,2018-11-23,46
20214751,LB,20214751-353,351,CA,Calcium,Serum Chemistry,2.48,mg/dL,2.48,2.48,mg/dL,,,,,,46,2018-11-23,46
20214751,LB,20214751-353,352,CHOL,Cholesterol,Serum Chemistry,0,mg/dL,0,0,mg/dL,,,,,,46,2018-11-23,46
20214751,LB,20214751-353,353,CREAT,Creatinine,Serum Chemistry,0,mg/dL,0,0,mg/dL,,,,,,46,2018-11-23,46
20214751,LB,20214751-353,354,PROT,Protein,Serum Chemistry,0,g/dL,0,0,g/dL,,,,,,46,2018-11-23,46
20214751,LB,20214751-353,355,INIO,Inorganic Iodine,Biomarker,444,ug/L,444,444,ug/L,,,,,,15,2018-10-23,15
20214751,LB,20214751-353,357,INIO,Inorganic Iodine,Biomarker,1148,ug/L,1148,1148,ug/L,,,,,,46,2018-11-23,46
20214751,LB,20214751-353,358,FE,Follicular epithelium %,Histology,57,%,57,57,%,,,GLAND THYROID,,,46,2018-11-23,46
20214751,LB,20214751-353,359,T3THY,Triiodothyronine/Thyroid,,7.54,ng/mg thyroid,7.54,7.54,ng/mg thyroid,,,GLAND THYROID,,,46,2018-11-23,46
20214751,LB,20214751-353,360,T4THY,Thyroxine/Thyroid,,78.4,ng/mg thyroid,78.4,78.4,ng/mg thyroid,,,GLAND THYROID,,,46,2018-11-23,46
20214751,LB,20214751-353,361,T3,Triiodothyronine,,189,ng/thyroid,189,189,ng/thyroid,,,GLAND THYROID,,,46,2018-11-23,46
20214751,LB,20214751-353,362,T4,Thyroxine,,1960,ng/thyroid,1960,1960,ng/thyroid,,,GLAND THYROID,,,46,2018-11-23,46
20214751,LB,20214751-353,363,IODIDETH,Iodide/Thyroid,,101,ng/mg thyroid,101,101,ng/mg thyroid,,,GLAND THYROID,,,46,2018-11-23,46
20214751,LB,20214751-353,364,IODIDE,Iodide,,2516,ng/thyroid,2516,2516,ng/thyroid,,,GLAND THYROID,,,46,2018-11-23,46
20214751,LB,20214751-353,365,TSH,Thyrotropin,,0.88,ng/mL,0.88,0.88,ng/mL,,,SERUM,,,15,2018-10-23,15
20214751,LB,20214751-353,366,T3,Triiodothyronine,,5.83,ng/mL,5.83,5.83,ng/mL,,,SERUM,,,15,2018-10-23,15
20214751,LB,20214751-353,367,T4,Thyroxine,,246,ng/mL,246,246,ng/mL,,,SERUM,,,15,2018-10-23,15
20214751,LB,20214751-353,368,TSH,Thyrotropin,,1.55,ng/mL,1.55,1.55,ng/mL,,,SERUM,,,28,2018-11-05,28
20214751,LB,20214751-353,369,T3,Triiodothyronine,,5.45,ng/mL,5.45,5.45,ng/mL,,,SERUM,,,28,2018-11-05,28
20214751,LB,20214751-353,370,T4,Thyroxine,,159,ng/mL,159,159,ng/mL,,,SERUM,,,28,2018-11-05,28
20214751,LB,20214751-353,371,TSH,Thyrotropin,,1.80,ng/mL,1.80,1.8,ng/mL,,,SERUM,,,46,2018-11-23,46
20214751,LB,20214751-353,372,T3,Triiodothyronine,,3.10,ng/mL,3.10,3.1,ng/mL,,,SERUM,,,46,2018-11-23,46
20214751,LB,20214751-353,373,T4,Thyroxine,,161,ng/mL,161,161,ng/mL,,,SERUM,,,46,2018-11-23,46
20214751,LB,20214751-354,374,ALT,Alanine Aminotransferase,Serum Chemistry,34,U/L,34,34,U/L,,,,,,46,2018-11-23,46
20214751,LB,20214751-354,375,AST,Aspartate Aminotransferase,Serum Chemistry,68,U/L,68,68,U/L,,,,,,46,2018-11-23,46
20214751,LB,20214751-354,376,CA,Calcium,Serum Chemistry,2.5,mg/dL,2.5,2.5,mg/dL,,,,,,46,2018-11-23,46
20214751,LB,20214751-354,377,CHOL,Cholesterol,Serum Chemistry,68,mg/dL,68,68,mg/dL,,,,,,46,2018-11-23,46
20214751,LB,20214751-354,378,CREAT,Creatinine,Serum Chemistry,0.62,mg/dL,0.62,0.62,mg/dL,,,,,,46,2018-11-23,46
20214751,LB,20214751-354,379,PROT,Protein,Serum Chemistry,6.4,g/dL,6.4,6.4,g/dL,,,,,,46,2018-11-23,46
20214751,LB,20214751-354,380,INIO,Inorganic Iodine,Biomarker,742,ug/L,742,742,ug/L,,,,,,15,2018-10-23,15
20214751,LB,20214751-354,381,INIO,Inorganic Iodine,Biomarker,757,ug/L,757,757,ug/L,,,,,,28,2018-11-05,28
20214751,LB,20214751-354,382,INIO,Inorganic Iodine,Biomarker,742,ug/L,742,742,ug/L,,,,,,46,2018-11-23,46
20214751,LB,20214751-354,383,FE,Follicular epithelium %,Histology,38,%,38,38,%,,,GLAND THYROID,,,46,2018-11-23,46
20214751,LB,20214751-354,384,T3THY,Triiodothyronine/Thyroid,,4.19,ng/mg thyroid,4.19,4.19,ng/mg thyroid,,,GLAND THYROID,,,46,2018-11-23,46
20214751,LB,20214751-354,385,T4THY,Thyroxine/Thyroid,,26.7,ng/mg thyroid,26.7,26.7,ng/mg thyroid,,,GLAND THYROID,,,46,2018-11-23,46
20214751,LB,20214751-354,386,T3,Triiodothyronine,,80,ng/thyroid,80,80,ng/thyroid,,,GLAND THYROID,,,46,2018-11-23,46
20214751,LB,20214751-354,387,T4,Thyroxine,,507,ng/thyroid,507,507,ng/thyroid,,,GLAND THYROID,,,46,2018-11-23,46
20214751,LB,20214751-354,388,IODIDETH,Iodide/Thyroid,,75,ng/mg thyroid,75,75,ng/mg thyroid,,,GLAND THYROID,,,46,2018-11-23,46
20214751,LB,20214751-354,389,IODIDE,Iodide,,1422,ng/thyroid,1422,1422,ng/thyroid,,,GLAND THYROID,,,46,2018-11-23,46
20214751,LB,20214751-354,390,TSH,Thyrotropin,,1.02,ng/mL,1.02,1.02,ng/mL,,,SERUM,,,15,2018-10-23,15
20214751,LB,20214751-354,391,T3,Triiodothyronine,,6.04,ng/mL,6.04,6.04,ng/mL,,,SERUM,,,15,2018-10-23,15
20214751,LB,20214751-354,392,T4,Thyroxine,,149,ng/mL,149,149,ng/mL,,,SERUM,,,15,2018-10-23,15
20214751,LB,20214751-354,393,TSH,Thyrotropin,,1.38,ng/mL,1.38,1.38,ng/mL,,,SERUM,,,28,2018-11-05,28
20214751,LB,20214751-354,394,T3,Triiodothyronine,,6.83,ng/mL,6.83,6.83,ng/mL,,,SERUM,,,28,2018-11-05,28
20214751,LB,20214751-354,395,T4,Thyroxine,,142,ng/mL,142,142,ng/mL,,,SERUM,,,28,2018-11-05,28
20214751,LB,20214751-354,396,TSH,Thyrotropin,,2.34,ng/mL,2.34,2.34,ng/mL,,,SERUM,,,46,2018-11-23,46
20214751,LB,20214751-354,397,T3,Triiodothyronine,,4.84,ng/mL,4.84,4.84,ng/mL,,,SERUM,,,46,2018-11-23,46
20214751,LB,20214751-354,398,T4,Thyroxine,,150,ng/mL,150,150,ng/mL,,,SERUM,,,46,2018-11-23,46
20214751,LB,20214751-355,399,ALT,Alanine Aminotransferase,Serum Chemistry,35,U/L,35,35,U/L,,,,,,46,2018-11-23,46
20214751,LB,20214751-355,400,AST,Aspartate Aminotransferase,Serum Chemistry,68,U/L,68,68,U/L,,,,,,46,2018-11-23,46
20214751,LB,20214751-355,401,CA,Calcium,Serum Chemistry,2.45,mg/dL,2.45,2.45,mg/dL,,,,,,46,2018-11-23,46
20214751,LB,20214751-355,402,CHOL,Cholesterol,Serum Chemistry,57,mg/dL,57,57,mg/dL,,,,,,46,2018-11-23,46
20214751,LB,20214751-355,403,CREAT,Creatinine,Serum Chemistry,0.6,mg/dL,0.6,0.6,mg/dL,,,,,,46,2018-11-23,46
20214751,LB,20214751-355,404,PROT,Protein,Serum Chemistry,6.26,g/dL,6.26,6.26,g/dL,,,,,,46,2018-11-23,46
20214751,LB,20214751-355,405,INIO,Inorganic Iodine,Biomarker,672,ug/L,672,672,ug/L,,,,,,15,2018-10-23,15
20214751,LB,20214751-355,406,INIO,Inorganic Iodine,Biomarker,560,ug/L,560,560,ug/L,,,,,,28,2018-11-05,28
20214751,LB,20214751-355,407,INIO,Inorganic Iodine,Biomarker,1219,ug/L,1219,1219,ug/L,,,,,,46,2018-11-23,46
20214751,LB,20214751-355,408,FE,Follicular epithelium %,Histology,40,%,40,40,%,,,GLAND THYROID,,,46,2018-11-23,46
20214751,LB,20214751-355,409,T3THY,Triiodothyronine/Thyroid,,3.11,ng/mg thyroid,3.11,3.11,ng/mg thyroid,,,GLAND THYROID,,,46,2018-11-23,46
20214751,LB,20214751-355,410,T4THY,Thyroxine/Thyroid,,23.9,ng/mg thyroid,23.9,23.9,ng/mg thyroid,,,GLAND THYROID,,,46,2018-11-23,46
20214751,LB,20214751-355,411,T3,Triiodothyronine,,59,ng/thyroid,59,59,ng/thyroid,,,GLAND THYROID,,,46,2018-11-23,46
20214751,LB,20214751-355,412,T4,Thyroxine,,455,ng/thyroid,455,455,ng/thyroid,,,GLAND THYROID,,,46,2018-11-23,46
20214751,LB,20214751-355,413,IODIDETH,Iodide/Thyroid,,70,ng/mg thyroid,70,70,ng/mg thyroid,,,GLAND THYROID,,,46,2018-11-23,46
20214751,LB,20214751-355,414,IODIDE,Iodide,,1335,ng/thyroid,1335,1335,ng/thyroid,,,GLAND THYROID,,,46,2018-11-23,46
20214751,LB,20214751-355,415,TSH,Thyrotropin,,2.21,ng/mL,2.21,2.21,ng/mL,,,SERUM,,,15,2018-10-23,15
20214751,LB,20214751-355,416,T3,Triiodothyronine,,4.53,ng/mL,4.53,4.53,ng/mL,,,SERUM,,,15,2018-10-23,15
20214751,LB,20214751-355,417,T4,Thyroxine,,158,ng/mL,158,158,ng/mL,,,SERUM,,,15,2018-10-23,15
20214751,LB,20214751-355,418,TSH,Thyrotropin,,2.94,ng/mL,2.94,2.94,ng/mL,,,SERUM,,,28,2018-11-05,28
20214751,LB,20214751-355,419,T3,Triiodothyronine,,5.49,ng/mL,5.49,5.49,ng/mL,,,SERUM,,,28,2018-11-05,28
20214751,LB,20214751-355,420,T4,Thyroxine,,152,ng/mL,152,152,ng/mL,,,SERUM,,,28,2018-11-05,28
20214751,LB,20214751-355,421,TSH,Thyrotropin,,1.65,ng/mL,1.65,1.65,ng/mL,,,SERUM,,,46,2018-11-23,46
20214751,LB,20214751-355,422,T3,Triiodothyronine,,4.87,ng/mL,4.87,4.87,ng/mL,,,SERUM,,,46,2018-11-23,46
20214751,LB,20214751-355,423,T4,Thyroxine,,130,ng/mL,130,130,ng/mL,,,SERUM,,,46,2018-11-23,46
20214751,LB,20214751-356,424,ALT,Alanine Aminotransferase,Serum Chemistry,30,U/L,30,30,U/L,,,,,,46,2018-11-23,46
20214751,LB,20214751-356,425,AST,Aspartate Aminotransferase,Serum Chemistry,76,U/L,76,76,U/L,,,,,,46,2018-11-23,46
20214751,LB,20214751-356,426,CA,Calcium,Serum Chemistry,2.47,mg/dL,2.47,2.47,mg/dL,,,,,,46,2018-11-23,46
20214751,LB,20214751-356,427,CHOL,Cholesterol,Serum Chemistry,71,mg/dL,71,71,mg/dL,,,,,,46,2018-11-23,46
20214751,LB,20214751-356,428,CREAT,Creatinine,Serum Chemistry,0.58,mg/dL,0.58,0.58,mg/dL,,,,,,46,2018-11-23,46
20214751,LB,20214751-356,429,PROT,Protein,Serum Chemistry,6.17,g/dL,6.17,6.17,g/dL,,,,,,46,2018-11-23,46
20214751,LB,20214751-356,430,INIO,Inorganic Iodine,Biomarker,399,ug/L,399,399,ug/L,,,,,,15,2018-10-23,15
20214751,LB,20214751-356,431,INIO,Inorganic Iodine,Biomarker,222,ug/L,222,222,ug/L,,,,,,28,2018-11-05,28
20214751,LB,20214751-356,432,INIO,Inorganic Iodine,Biomarker,675,ug/L,675,675,ug/L,,,,,,46,2018-11-23,46
20214751,LB,20214751-356,433,FE,Follicular epithelium %,Histology,45,%,45,45,%,,,GLAND THYROID,,,46,2018-11-23,46
20214751,LB,20214751-356,434,T3THY,Triiodothyronine/Thyroid,,2.41,ng/mg thyroid,2.41,2.41,ng/mg thyroid,,,GLAND THYROID,,,46,2018-11-23,46
20214751,LB,20214751-356,435,T4THY,Thyroxine/Thyroid,,15.4,ng/mg thyroid,15.4,15.4,ng/mg thyroid,,,GLAND THYROID,,,46,2018-11-23,46
20214751,LB,20214751-356,436,T3,Triiodothyronine,,63,ng/thyroid,63,63,ng/thyroid,,,GLAND THYROID,,,46,2018-11-23,46
20214751,LB,20214751-356,437,T4,Thyroxine,,399,ng/thyroid,399,399,ng/thyroid,,,GLAND THYROID,,,46,2018-11-23,46
20214751,LB,20214751-356,438,IODIDETH,Iodide/Thyroid,,65,ng/mg thyroid,65,65,ng/mg thyroid,,,GLAND THYROID,,,46,2018-11-23,46
20214751,LB,20214751-356,439,IODIDE,Iodide,,1693,ng/thyroid,1693,1693,ng/thyroid,,,GLAND THYROID,,,46,2018-11-23,46
20214751,LB,20214751-356,440,TSH,Thyrotropin,,0.89,ng/mL,0.89,0.89,ng/mL,,,SERUM,,,15,2018-10-23,15
20214751,LB,20214751-356,441,T3,Triiodothyronine,,5.39,ng/mL,5.39,5.39,ng/mL,,,SERUM,,,15,2018-10-23,15
20214751,LB,20214751-356,442,T4,Thyroxine,,207,ng/mL,207,207,ng/mL,,,SERUM,,,15,2018-10-23,15
20214751,LB,20214751-356,443,TSH,Thyrotropin,,1.51,ng/mL,1.51,1.51,ng/mL,,,SERUM,,,28,2018-11-05,28
20214751,LB,20214751-356,444,T3,Triiodothyronine,,5.83,ng/mL,5.83,5.83,ng/mL,,,SERUM,,,28,2018-11-05,28
20214751,LB,20214751-356,445,T4,Thyroxine,,190,ng/mL,190,190,ng/mL,,,SERUM,,,28,2018-11-05,28
20214751,LB,20214751-356,446,TSH,Thyrotropin,,2.05,ng/mL,2.05,2.05,ng/mL,,,SERUM,,,46,2018-11-23,46
20214751,LB,20214751-356,447,T3,Triiodothyronine,,6.00,ng/mL,6.00,6,ng/mL,,,SERUM,,,46,2018-11-23,46
20214751,LB,20214751-356,448,T4,Thyroxine,,210,ng/mL,210,210,ng/mL,,,SERUM,,,46,2018-11-23,46
20214751,LB,20214751-451,449,ALT,Alanine Aminotransferase,Serum Chemistry,39,U/L,39,39,U/L,,,,,,32,2018-11-09,32
20214751,LB,20214751-451,450,AST,Aspartate Aminotransferase,Serum Chemistry,89,U/L,89,89,U/L,,,,,,32,2018-11-09,32
20214751,LB,20214751-451,451,CA,Calcium,Serum Chemistry,2.59,mg/dL,2.59,2.59,mg/dL,,,,,,32,2018-11-09,32
20214751,LB,20214751-451,452,CHOL,Cholesterol,Serum Chemistry,55,mg/dL,55,55,mg/dL,,,,,,32,2018-11-09,32
20214751,LB,20214751-451,453,CREAT,Creatinine,Serum Chemistry,0.6,mg/dL,0.6,0.6,mg/dL,,,,,,32,2018-11-09,32
20214751,LB,20214751-451,454,PROT,Protein,Serum Chemistry,6.26,g/dL,6.26,6.26,g/dL,,,,,,32,2018-11-09,32
20214751,LB,20214751-451,455,INIO,Inorganic Iodine,Biomarker,1950,ug/L,1950,1950,ug/L,,,,,,15,2018-10-23,15
20214751,LB,20214751-451,456,INIO,Inorganic Iodine,Biomarker,2681,ug/L,2681,2681,ug/L,,,,,,28,2018-11-05,28
20214751,LB,20214751-451,457,FE,Follicular epithelium %,Histology,42,%,42,42,%,,,GLAND THYROID,,,32,2018-11-09,32
20214751,LB,20214751-451,458,T3THY,Triiodothyronine/Thyroid,,2.41,ng/mg thyroid,2.41,2.41,ng/mg thyroid,,,GLAND THYROID,,,32,2018-11-09,32
20214751,LB,20214751-451,459,T4THY,Thyroxine/Thyroid,,11.4,ng/mg thyroid,11.4,11.4,ng/mg thyroid,,,GLAND THYROID,,,32,2018-11-09,32
20214751,LB,20214751-451,460,T3,Triiodothyronine,,77,ng/thyroid,77,77,ng/thyroid,,,GLAND THYROID,,,32,2018-11-09,32
20214751,LB,20214751-451,461,T4,Thyroxine,,364,ng/thyroid,364,364,ng/thyroid,,,GLAND THYROID,,,32,2018-11-09,32
20214751,LB,20214751-451,462,IODIDETH,Iodide/Thyroid,,71,ng/mg thyroid,71,71,ng/mg thyroid,,,GLAND THYROID,,,32,2018-11-09,32
20214751,LB,20214751-451,463,IODIDE,Iodide,,2283,ng/thyroid,2283,2283,ng/thyroid,,,GLAND THYROID,,,32,2018-11-09,32
20214751,LB,20214751-451,464,TSH,Thyrotropin,,1.54,ng/mL,1.54,1.54,ng/mL,,,SERUM,,,15,2018-10-23,15
20214751,LB,20214751-451,465,T3,Triiodothyronine,,4.84,ng/mL,4.84,4.84,ng/mL,,,SERUM,,,15,2018-10-23,15
20214751,LB,20214751-451,466,T4,Thyroxine,,110,ng/mL,110,110,ng/mL,,,SERUM,,,15,2018-10-23,15
20214751,LB,20214751-451,467,TSH,Thyrotropin,,1.73,ng/mL,1.73,1.73,ng/mL,,,SERUM,,,28,2018-11-05,28
20214751,LB,20214751-451,468,T3,Triiodothyronine,,5.05,ng/mL,5.05,5.05,ng/mL,,,SERUM,,,28,2018-11-05,28
20214751,LB,20214751-451,469,T4,Thyroxine,,105,ng/mL,105,105,ng/mL,,,SERUM,,,28,2018-11-05,28
20214751,LB,20214751-452,470,ALT,Alanine Aminotransferase,Serum Chemistry,33,U/L,33,33,U/L,,,,,,32,2018-11-09,32
20214751,LB,20214751-452,471,AST,Aspartate Aminotransferase,Serum Chemistry,74,U/L,74,74,U/L,,,,,,32,2018-11-09,32
20214751,LB,20214751-452,472,CA,Calcium,Serum Chemistry,2.54,mg/dL,2.54,2.54,mg/dL,,,,,,32,2018-11-09,32
20214751,LB,20214751-452,473,CHOL,Cholesterol,Serum Chemistry,68,mg/dL,68,68,mg/dL,,,,,,32,2018-11-09,32
20214751,LB,20214751-452,474,CREAT,Creatinine,Serum Chemistry,0.59,mg/dL,0.59,0.59,mg/dL,,,,,,32,2018-11-09,32
20214751,LB,20214751-452,475,PROT,Protein,Serum Chemistry,6.14,g/dL,6.14,6.14,g/dL,,,,,,32,2018-11-09,32
20214751,LB,20214751-452,476,INIO,Inorganic Iodine,Biomarker,2191,ug/L,2191,2191,ug/L,,,,,,15,2018-10-23,15
20214751,LB,20214751-452,477,INIO,Inorganic Iodine,Biomarker,2057,ug/L,2057,2057,ug/L,,,,,,28,2018-11-05,28
20214751,LB,20214751-452,478,FE,Follicular epithelium %,Histology,43,%,43,43,%,,,GLAND THYROID,,,32,2018-11-09,32
20214751,LB,20214751-452,479,T3THY,Triiodothyronine/Thyroid,,4.39,ng/mg thyroid,4.39,4.39,ng/mg thyroid,,,GLAND THYROID,,,32,2018-11-09,32
20214751,LB,20214751-452,480,T4THY,Thyroxine/Thyroid,,45.2,ng/mg thyroid,45.2,45.2,ng/mg thyroid,,,GLAND THYROID,,,32,2018-11-09,32
20214751,LB,20214751-452,481,T3,Triiodothyronine,,105,ng/thyroid,105,105,ng/thyroid,,,GLAND THYROID,,,32,2018-11-09,32
20214751,LB,20214751-452,482,T4,Thyroxine,,1084,ng/thyroid,1084,1084,ng/thyroid,,,GLAND THYROID,,,32,2018-11-09,32
20214751,LB,20214751-452,483,IODIDETH,Iodide/Thyroid,,84,ng/mg thyroid,84,84,ng/mg thyroid,,,GLAND THYROID,,,32,2018-11-09,32
20214751,LB,20214751-452,484,IODIDE,Iodide,,2021,ng/thyroid,2021,2021,ng/thyroid,,,GLAND THYROID,,,32,2018-11-09,32
20214751,LB,20214751-452,485,TSH,Thyrotropin,,1.23,ng/mL,1.23,1.23,ng/mL,,,SERUM,,,15,2018-10-23,15
20214751,LB,20214751-452,486,T3,Triiodothyronine,,5.32,ng/mL,5.32,5.32,ng/mL,,,SERUM,,,15,2018-10-23,15
20214751,LB,20214751-452,487,T4,Thyroxine,,146,ng/mL,146,146,ng/mL,,,SERUM,,,15,2018-10-23,15
20214751,LB,20214751-452,488,TSH,Thyrotropin,,1.79,ng/mL,1.79,1.79,ng/mL,,,SERUM,,,28,2018-11-05,28
20214751,LB,20214751-452,489,T3,Triiodothyronine,,5.61,ng/mL,5.61,5.61,ng/mL,,,SERUM,,,28,2018-11-05,28
20214751,LB,20214751-452,490,T4,Thyroxine,,136,ng/mL,136,136,ng/mL,,,SERUM,,,28,2018-11-05,28
20214751,LB,20214751-453,491,ALT,Alanine Aminotransferase,Serum Chemistry,36,U/L,36,36,U/L,,,,,,32,2018-11-09,32
20214751,LB,20214751-453,492,AST,Aspartate Aminotransferase,Serum Chemistry,77,U/L,77,77,U/L,,,,,,32,2018-11-09,32
20214751,LB,20214751-453,493,CA,Calcium,Serum Chemistry,2.37,mg/dL,2.37,2.37,mg/dL,,,,,,32,2018-11-09,32
20214751,LB,20214751-453,494,CHOL,Cholesterol,Serum Chemistry,63,mg/dL,63,63,mg/dL,,,,,,32,2018-11-09,32
20214751,LB,20214751-453,495,CREAT,Creatinine,Serum Chemistry,0.54,mg/dL,0.54,0.54,mg/dL,,,,,,32,2018-11-09,32
20214751,LB,20214751-453,496,PROT,Protein,Serum Chemistry,5.8,g/dL,5.8,5.8,g/dL,,,,,,32,2018-11-09,32
20214751,LB,20214751-453,497,INIO,Inorganic Iodine,Biomarker,2023,ug/L,2023,2023,ug/L,,,,,,15,2018-10-23,15
20214751,LB,20214751-453,498,INIO,Inorganic Iodine,Biomarker,1168,ug/L,1168,1168,ug/L,,,,,,28,2018-11-05,28
20214751,LB,20214751-453,499,FE,Follicular epithelium %,Histology,37,%,37,37,%,,,GLAND THYROID,,,32,2018-11-09,32
20214751,LB,20214751-453,500,T3THY,Triiodothyronine/Thyroid,,3.21,ng/mg thyroid,3.21,3.21,ng/mg thyroid,,,GLAND THYROID,,,32,2018-11-09,32
20214751,LB,20214751-453,501,T4THY,Thyroxine/Thyroid,,24.6,ng/mg thyroid,24.6,24.6,ng/mg thyroid,,,GLAND THYROID,,,32,2018-11-09,32
20214751,LB,20214751-453,502,T3,Triiodothyronine,,80,ng/thyroid,80,80,ng/thyroid,,,GLAND THYROID,,,32,2018-11-09,32
20214751,LB,20214751-453,503,T4,Thyroxine,,615,ng/thyroid,615,615,ng/thyroid,,,GLAND THYROID,,,32,2018-11-09,32
20214751,LB,20214751-453,504,IODIDETH,Iodide/Thyroid,,70,ng/mg thyroid,70,70,ng/mg thyroid,,,GLAND THYROID,,,32,2018-11-09,32
20214751,LB,20214751-453,505,IODIDE,Iodide,,1762,ng/thyroid,1762,1762,ng/thyroid,,,GLAND THYROID,,,32,2018-11-09,32
20214751,LB,20214751-453,506,TSH,Thyrotropin,,1.68,ng/mL,1.68,1.68,ng/mL,,,SERUM,,,15,2018-10-23,15
20214751,LB,20214751-453,507,T3,Triiodothyronine,,5.25,ng/mL,5.25,5.25,ng/mL,,,SERUM,,,15,2018-10-23,15
20214751,LB,20214751-453,508,T4,Thyroxine,,198,ng/mL,198,198,ng/mL,,,SERUM,,,15,2018-10-23,15
20214751,LB,20214751-453,509,TSH,Thyrotropin,,1.76,ng/mL,1.76,1.76,ng/mL,,,SERUM,,,28,2018-11-05,28
20214751,LB,20214751-453,510,T3,Triiodothyronine,,6.72,ng/mL,6.72,6.72,ng/mL,,,SERUM,,,28,2018-11-05,28
20214751,LB,20214751-453,511,T4,Thyroxine,,156,ng/mL,156,156,ng/mL,,,SERUM,,,28,2018-11-05,28
20214751,LB,20214751-454,512,ALT,Alanine Aminotransferase,Serum Chemistry,28,U/L,28,28,U/L,,,,,,32,2018-11-09,32
20214751,LB,20214751-454,513,AST,Aspartate Aminotransferase,Serum Chemistry,69,U/L,69,69,U/L,,,,,,32,2018-11-09,32
20214751,LB,20214751-454,514,CA,Calcium,Serum Chemistry,2.41,mg/dL,2.41,2.41,mg/dL,,,,,,32,2018-11-09,32
20214751,LB,20214751-454,515,CHOL,Cholesterol,Serum Chemistry,67,mg/dL,67,67,mg/dL,,,,,,32,2018-11-09,32
20214751,LB,20214751-454,516,CREAT,Creatinine,Serum Chemistry,0.56,mg/dL,0.56,0.56,mg/dL,,,,,,32,2018-11-09,32
20214751,LB,20214751-454,517,PROT,Protein,Serum Chemistry,6.21,g/dL,6.21,6.21,g/dL,,,,,,32,2018-11-09,32
20214751,LB,20214751-454,518,INIO,Inorganic Iodine,Biomarker,4780,ug/L,4780,4780,ug/L,,,,,,15,2018-10-23,15
20214751,LB,20214751-454,519,INIO,Inorganic Iodine,Biomarker,5511,ug/L,5511,5511,ug/L,,,,,,28,2018-11-05,28
20214751,LB,20214751-454,520,FE,Follicular epithelium %,Histology,37,%,37,37,%,,,GLAND THYROID,,,32,2018-11-09,32
20214751,LB,20214751-454,521,T3THY,Triiodothyronine/Thyroid,,1.87,ng/mg thyroid,1.87,1.87,ng/mg thyroid,,,GLAND THYROID,,,32,2018-11-09,32
20214751,LB,20214751-454,522,T4THY,Thyroxine/Thyroid,,7.7,ng/mg thyroid,7.7,7.7,ng/mg thyroid,,,GLAND THYROID,,,32,2018-11-09,32
20214751,LB,20214751-454,523,T3,Triiodothyronine,,64,ng/thyroid,64,64,ng/thyroid,,,GLAND THYROID,,,32,2018-11-09,32
20214751,LB,20214751-454,524,T4,Thyroxine,,261,ng/thyroid,261,261,ng/thyroid,,,GLAND THYROID,,,32,2018-11-09,32
20214751,LB,20214751-454,525,IODIDETH,Iodide/Thyroid,,56,ng/mg thyroid,56,56,ng/mg thyroid,,,GLAND THYROID,,,32,2018-11-09,32
20214751,LB,20214751-454,526,IODIDE,Iodide,,1912,ng/thyroid,1912,1912,ng/thyroid,,,GLAND THYROID,,,32,2018-11-09,32
20214751,LB,20214751-454,527,TSH,Thyrotropin,,3.83,ng/mL,3.83,3.83,ng/mL,,,SERUM,,,15,2018-10-23,15
20214751,LB,20214751-454,528,T3,Triiodothyronine,,5.26,ng/mL,5.26,5.26,ng/mL,,,SERUM,,,15,2018-10-23,15
20214751,LB,20214751-454,529,T4,Thyroxine,,140,ng/mL,140,140,ng/mL,,,SERUM,,,15,2018-10-23,15
20214751,LB,20214751-454,530,TSH,Thyrotropin,,3.49,ng/mL,3.49,3.49,ng/mL,,,SERUM,,,28,2018-11-05,28
20214751,LB,20214751-454,531,T3,Triiodothyronine,,5.81,ng/mL,5.81,5.81,ng/mL,,,SERUM,,,28,2018-11-05,28
20214751,LB,20214751-454,532,T4,Thyroxine,,144,ng/mL,144,144,ng/mL,,,SERUM,,,28,2018-11-05,28
20214751,LB,20214751-455,533,ALT,Alanine Aminotransferase,Serum Chemistry,45,U/L,45,45,U/L,,,,,,32,2018-11-09,32
20214751,LB,20214751-455,534,AST,Aspartate Aminotransferase,Serum Chemistry,89,U/L,89,89,U/L,,,,,,32,2018-11-09,32
20214751,LB,20214751-455,535,CA,Calcium,Serum Chemistry,2.4,mg/dL,2.4,2.4,mg/dL,,,,,,32,2018-11-09,32
20214751,LB,20214751-455,536,CHOL,Cholesterol,Serum Chemistry,66,mg/dL,66,66,mg/dL,,,,,,32,2018-11-09,32
20214751,LB,20214751-455,537,CREAT,Creatinine,Serum Chemistry,0.62,mg/dL,0.62,0.62,mg/dL,,,,,,32,2018-11-09,32
20214751,LB,20214751-455,538,PROT,Protein,Serum Chemistry,6.11,g/dL,6.11,6.11,g/dL,,,,,,32,2018-11-09,32
20214751,LB,20214751-455,539,INIO,Inorganic Iodine,Biomarker,4829,ug/L,4829,4829,ug/L,,,,,,15,2018-10-23,15
20214751,LB,20214751-455,540,INIO,Inorganic Iodine,Biomarker,6089,ug/L,6089,6089,ug/L,,,,,,28,2018-11-05,28
20214751,LB,20214751-455,541,FE,Follicular epithelium %,Histology,30,%,30,30,%,,,GLAND THYROID,,,32,2018-11-09,32
20214751,LB,20214751-455,542,T3THY,Triiodothyronine/Thyroid,,2.29,ng/mg thyroid,2.29,2.29,ng/mg thyroid,,,GLAND THYROID,,,32,2018-11-09,32
20214751,LB,20214751-455,543,T4THY,Thyroxine/Thyroid,,12.2,ng/mg thyroid,12.2,12.2,ng/mg thyroid,,,GLAND THYROID,,,32,2018-11-09,32
20214751,LB,20214751-455,544,T3,Triiodothyronine,,92,ng/thyroid,92,92,ng/thyroid,,,GLAND THYROID,,,32,2018-11-09,32
20214751,LB,20214751-455,545,T4,Thyroxine,,489,ng/thyroid,489,489,ng/thyroid,,,GLAND THYROID,,,32,2018-11-09,32
20214751,LB,20214751-455,546,IODIDETH,Iodide/Thyroid,,71,ng/mg thyroid,71,71,ng/mg thyroid,,,GLAND THYROID,,,32,2018-11-09,32
20214751,LB,20214751-455,547,IODIDE,Iodide,,2839,ng/thyroid,2839,2839,ng/thyroid,,,GLAND THYROID,,,32,2018-11-09,32
20214751,LB,20214751-455,549,T3,Triiodothyronine,,3.40,ng/mL,3.40,3.4,ng/mL,,,SERUM,,,15,2018-10-23,15
20214751,LB,20214751-455,550,T4,Thyroxine,,112,ng/mL,112,112,ng/mL,,,SERUM,,,15,2018-10-23,15
20214751,LB,20214751-455,551,TSH,Thyrotropin,,2.72,ng/mL,2.72,2.72,ng/mL,,,SERUM,,,28,2018-11-05,28
20214751,LB,20214751-455,552,T3,Triiodothyronine,,5.40,ng/mL,5.40,5.4,ng/mL,,,SERUM,,,28,2018-11-05,28
20214751,LB,20214751-455,553,T4,Thyroxine,,168,ng/mL,168,168,ng/mL,,,SERUM,,,28,2018-11-05,28
20214751,LB,20214751-456,554,ALT,Alanine Aminotransferase,Serum Chemistry,24,U/L,24,24,U/L,,,,,,32,2018-11-09,32
20214751,LB,20214751-456,555,AST,Aspartate Aminotransferase,Serum Chemistry,68,U/L,68,68,U/L,,,,,,32,2018-11-09,32
20214751,LB,20214751-456,556,CA,Calcium,Serum Chemistry,2.42,mg/dL,2.42,2.42,mg/dL,,,,,,32,2018-11-09,32
20214751,LB,20214751-456,557,CHOL,Cholesterol,Serum Chemistry,65,mg/dL,65,65,mg/dL,,,,,,32,2018-11-09,32
20214751,LB,20214751-456,558,CREAT,Creatinine,Serum Chemistry,0.6,mg/dL,0.6,0.6,mg/dL,,,,,,32,2018-11-09,32
20214751,LB,20214751-456,559,PROT,Protein,Serum Chemistry,6.19,g/dL,6.19,6.19,g/dL,,,,,,32,2018-11-09,32
20214751,LB,20214751-456,560,INIO,Inorganic Iodine,Biomarker,5720,ug/L,5720,5720,ug/L,,,,,,15,2018-10-23,15
20214751,LB,20214751-456,561,INIO,Inorganic Iodine,Biomarker,7723,ug/L,7723,7723,ug/L,,,,,,28,2018-11-05,28
20214751,LB,20214751-456,562,FE,Follicular epithelium %,Histology,38,%,38,38,%,,,GLAND THYROID,,,32,2018-11-09,32
20214751,LB,20214751-456,563,T3THY,Triiodothyronine/Thyroid,,3.24,ng/mg thyroid,3.24,3.24,ng/mg thyroid,,,GLAND THYROID,,,32,2018-11-09,32
20214751,LB,20214751-456,564,T4THY,Thyroxine/Thyroid,,18.0,ng/mg thyroid,18.0,18,ng/mg thyroid,,,GLAND THYROID,,,32,2018-11-09,32
20214751,LB,20214751-456,565,T3,Triiodothyronine,,97,ng/thyroid,97,97,ng/thyroid,,,GLAND THYROID,,,32,2018-11-09,32
20214751,LB,20214751-456,566,T4,Thyroxine,,541,ng/thyroid,541,541,ng/thyroid,,,GLAND THYROID,,,32,2018-11-09,32
20214751,LB,20214751-456,567,IODIDETH,Iodide/Thyroid,,111,ng/mg thyroid,111,111,ng/mg thyroid,,,GLAND THYROID,,,32,2018-11-09,32
20214751,LB,20214751-456,568,IODIDE,Iodide,,3324,ng/thyroid,3324,3324,ng/thyroid,,,GLAND THYROID,,,32,2018-11-09,32
20214751,LB,20214751-456,569,TSH,Thyrotropin,,2.48,ng/mL,2.48,2.48,ng/mL,,,SERUM,,,15,2018-10-23,15
20214751,LB,20214751-456,570,T3,Triiodothyronine,,5.12,ng/mL,5.12,5.12,ng/mL,,,SERUM,,,15,2018-10-23,15
20214751,LB,20214751-456,571,T4,Thyroxine,,128,ng/mL,128,128,ng/mL,,,SERUM,,,15,2018-10-23,15
20214751,LB,20214751-456,572,TSH,Thyrotropin,,2.04,ng/mL,2.04,2.04,ng/mL,,,SERUM,,,28,2018-11-05,28
20214751,LB,20214751-456,573,T3,Triiodothyronine,,6.48,ng/mL,6.48,6.48,ng/mL,,,SERUM,,,28,2018-11-05,28
20214751,LB,20214751-456,574,T4,Thyroxine,,131,ng/mL,131,131,ng/mL,,,SERUM,,,28,2018-11-05,28
20214751,LB,20214751-551,575,ALT,Alanine Aminotransferase,Serum Chemistry,32,U/L,32,32,U/L,,,,,,46,2018-11-23,46
20214751,LB,20214751-551,576,AST,Aspartate Aminotransferase,Serum Chemistry,64,U/L,64,64,U/L,,,,,,46,2018-11-23,46
20214751,LB,20214751-551,577,CA,Calcium,Serum Chemistry,2.57,mg/dL,2.57,2.57,mg/dL,,,,,,46,2018-11-23,46
20214751,LB,20214751-551,578,CHOL,Cholesterol,Serum Chemistry,65,mg/dL,65,65,mg/dL,,,,,,46,2018-11-23,46
20214751,LB,20214751-551,579,CREAT,Creatinine,Serum Chemistry,0.5,mg/dL,0.5,0.5,mg/dL,,,,,,46,2018-11-23,46
20214751,LB,20214751-551,580,PROT,Protein,Serum Chemistry,6.51,g/dL,6.51,6.51,g/dL,,,,,,46,2018-11-23,46
20214751,LB,20214751-551,581,INIO,Inorganic Iodine,Biomarker,930,ug/L,930,930,ug/L,,,,,,15,2018-10-23,15
20214751,LB,20214751-551,582,INIO,Inorganic Iodine,Biomarker,1452,ug/L,1452,1452,ug/L,,,,,,28,2018-11-05,28
20214751,LB,20214751-551,583,INIO,Inorganic Iodine,Biomarker,903,ug/L,903,903,ug/L,,,,,,46,2018-11-23,46
20214751,LB,20214751-551,584,FE,Follicular epithelium %,Histology,39,%,39,39,%,,,GLAND THYROID,,,46,2018-11-23,46
20214751,LB,20214751-551,585,T3THY,Triiodothyronine/Thyroid,,12.89,ng/mg thyroid,12.89,12.89,ng/mg thyroid,,,GLAND THYROID,,,46,2018-11-23,46
20214751,LB,20214751-551,586,T4THY,Thyroxine/Thyroid,,178.3,ng/mg thyroid,178.3,178.3,ng/mg thyroid,,,GLAND THYROID,,,46,2018-11-23,46
20214751,LB,20214751-551,587,T3,Triiodothyronine,,155,ng/thyroid,155,155,ng/thyroid,,,GLAND THYROID,,,46,2018-11-23,46
20214751,LB,20214751-551,588,T4,Thyroxine,,2140,ng/thyroid,2140,2140,ng/thyroid,,,GLAND THYROID,,,46,2018-11-23,46
20214751,LB,20214751-551,589,IODIDETH,Iodide/Thyroid,,204,ng/mg thyroid,204,204,ng/mg thyroid,,,GLAND THYROID,,,46,2018-11-23,46
20214751,LB,20214751-551,590,IODIDE,Iodide,,2445,ng/thyroid,2445,2445,ng/thyroid,,,GLAND THYROID,,,46,2018-11-23,46
20214751,LB,20214751-551,591,TSH,Thyrotropin,,0.79,ng/mL,0.79,0.79,ng/mL,,,SERUM,,,15,2018-10-23,15
20214751,LB,20214751-551,592,T3,Triiodothyronine,,5.36,ng/mL,5.36,5.36,ng/mL,,,SERUM,,,15,2018-10-23,15
20214751,LB,20214751-551,594,TSH,Thyrotropin,,0.47,ng/mL,0.47,0.47,ng/mL,,,SERUM,,,28,2018-11-05,28
20214751,LB,20214751-551,595,T3,Triiodothyronine,,6.00,ng/mL,6.00,6,ng/mL,,,SERUM,,,28,2018-11-05,28
20214751,LB,20214751-551,596,T4,Thyroxine,,284,ng/mL,284,284,ng/mL,,,SERUM,,,28,2018-11-05,28
20214751,LB,20214751-551,597,TSH,Thyrotropin,,0.82,ng/mL,0.82,0.82,ng/mL,,,SERUM,,,46,2018-11-23,46
20214751,LB,20214751-551,598,T3,Triiodothyronine,,6.36,ng/mL,6.36,6.36,ng/mL,,,SERUM,,,46,2018-11-23,46
20214751,LB,20214751-551,599,T4,Thyroxine,,378,ng/mL,378,378,ng/mL,,,SERUM,,,46,2018-11-23,46
20214751,LB,20214751-552,600,ALT,Alanine Aminotransferase,Serum Chemistry,37,U/L,37,37,U/L,,,,,,46,2018-11-23,46
20214751,LB,20214751-552,601,AST,Aspartate Aminotransferase,Serum Chemistry,58,U/L,58,58,U/L,,,,,,46,2018-11-23,46
20214751,LB,20214751-552,602,CA,Calcium,Serum Chemistry,2.59,mg/dL,2.59,2.59,mg/dL,,,,,,46,2018-11-23,46
20214751,LB,20214751-552,603,CHOL,Cholesterol,Serum Chemistry,41,mg/dL,41,41,mg/dL,,,,,,46,2018-11-23,46
20214751,LB,20214751-552,604,CREAT,Creatinine,Serum Chemistry,0.49,mg/dL,0.49,0.49,mg/dL,,,,,,46,2018-11-23,46
20214751,LB,20214751-552,605,PROT,Protein,Serum Chemistry,6.41,g/dL,6.41,6.41,g/dL,,,,,,46,2018-11-23,46
20214751,LB,20214751-552,606,INIO,Inorganic Iodine,Biomarker,1051,ug/L,1051,1051,ug/L,,,,,,15,2018-10-23,15
20214751,LB,20214751-552,607,INIO,Inorganic Iodine,Biomarker,1836,ug/L,1836,1836,ug/L,,,,,,28,2018-11-05,28
20214751,LB,20214751-552,608,INIO,Inorganic Iodine,Biomarker,109,ug/L,109,109,ug/L,,,,,,46,2018-11-23,46
20214751,LB,20214751-552,609,FE,Follicular epithelium %,Histology,48,%,48,48,%,,,GLAND THYROID,,,46,2018-11-23,46
20214751,LB,20214751-552,610,T3THY,Triiodothyronine/Thyroid,,11.49,ng/mg thyroid,11.49,11.49,ng/mg thyroid,,,GLAND THYROID,,,46,2018-11-23,46
20214751,LB,20214751-552,611,T4THY,Thyroxine/Thyroid,,233.8,ng/mg thyroid,233.8,233.8,ng/mg thyroid,,,GLAND THYROID,,,46,2018-11-23,46
20214751,LB,20214751-552,612,T3,Triiodothyronine,,126,ng/thyroid,126,126,ng/thyroid,,,GLAND THYROID,,,46,2018-11-23,46
20214751,LB,20214751-552,613,T4,Thyroxine,,2571,ng/thyroid,2571,2571,ng/thyroid,,,GLAND THYROID,,,46,2018-11-23,46
20214751,LB,20214751-552,614,IODIDETH,Iodide/Thyroid,,404,ng/mg thyroid,404,404,ng/mg thyroid,,,GLAND THYROID,,,46,2018-11-23,46
20214751,LB,20214751-552,615,IODIDE,Iodide,,4446,ng/thyroid,4446,4446,ng/thyroid,,,GLAND THYROID,,,46,2018-11-23,46
20214751,LB,20214751-552,616,TSH,Thyrotropin,,0.71,ng/mL,0.71,0.71,ng/mL,,,SERUM,,,15,2018-10-23,15
20214751,LB,20214751-552,617,T3,Triiodothyronine,,6.33,ng/mL,6.33,6.33,ng/mL,,,SERUM,,,15,2018-10-23,15
20214751,LB,20214751-552,618,T4,Thyroxine,,477,ng/mL,477,477,ng/mL,,,SERUM,,,15,2018-10-23,15
20214751,LB,20214751-552,619,TSH,Thyrotropin,,0.73,ng/mL,0.73,0.73,ng/mL,,,SERUM,,,28,2018-11-05,28
20214751,LB,20214751-552,620,T3,Triiodothyronine,,7.06,ng/mL,7.06,7.06,ng/mL,,,SERUM,,,28,2018-11-05,28
20214751,LB,20214751-552,621,T4,Thyroxine,,465,ng/mL,465,465,ng/mL,,,SERUM,,,28,2018-11-05,28
20214751,LB,20214751-552,622,TSH,Thyrotropin,,0.65,ng/mL,0.65,0.65,ng/mL,,,SERUM,,,46,2018-11-23,46
20214751,LB,20214751-552,623,T3,Triiodothyronine,,3.34,ng/mL,3.34,3.34,ng/mL,,,SERUM,,,46,2018-11-23,46
20214751,LB,20214751-552,624,T4,Thyroxine,,247,ng/mL,247,247,ng/mL,,,SERUM,,,46,2018-11-23,46
20214751,LB,20214751-553,625,ALT,Alanine Aminotransferase,Serum Chemistry,38,U/L,38,38,U/L,,,,,,46,2018-11-23,46
20214751,LB,20214751-553,626,AST,Aspartate Aminotransferase,Serum Chemistry,59,U/L,59,59,U/L,,,,,,46,2018-11-23,46
20214751,LB,20214751-553,627,CA,Calcium,Serum Chemistry,2.59,mg/dL,2.59,2.59,mg/dL,,,,,,46,2018-11-23,46
20214751,LB,20214751-553,628,CHOL,Cholesterol,Serum Chemistry,56,mg/dL,56,56,mg/dL,,,,,,46,2018-11-23,46
20214751,LB,20214751-553,629,CREAT,Creatinine,Serum Chemistry,0.49,mg/dL,0.49,0.49,mg/dL,,,,,,46,2018-11-23,46
20214751,LB,20214751-553,630,PROT,Protein,Serum Chemistry,6.87,g/dL,6.87,6.87,g/dL,,,,,,46,2018-11-23,46
20214751,LB,20214751-553,631,INIO,Inorganic Iodine,Biomarker,370,ug/L,370,370,ug/L,,,,,,15,2018-10-23,15
20214751,LB,20214751-553,632,INIO,Inorganic Iodine,Biomarker,4706,ug/L,4706,4706,ug/L,,,,,,28,2018-11-05,28
20214751,LB,20214751-553,633,INIO,Inorganic Iodine,Biomarker,1710,ug/L,1710,1710,ug/L,,,,,,46,2018-11-23,46
20214751,LB,20214751-553,634,FE,Follicular epithelium %,Histology,34,%,34,34,%,,,GLAND THYROID,,,46,2018-11-23,46
20214751,LB,20214751-553,635,T3THY,Triiodothyronine/Thyroid,,14.35,ng/mg thyroid,14.35,14.35,ng/mg thyroid,,,GLAND THYROID,,,46,2018-11-23,46
20214751,LB,20214751-553,636,T4THY,Thyroxine/Thyroid,,222.8,ng/mg thyroid,222.8,222.8,ng/mg thyroid,,,GLAND THYROID,,,46,2018-11-23,46
20214751,LB,20214751-553,637,T3,Triiodothyronine,,158,ng/thyroid,158,158,ng/thyroid,,,GLAND THYROID,,,46,2018-11-23,46
20214751,LB,20214751-553,638,T4,Thyroxine,,2451,ng/thyroid,2451,2451,ng/thyroid,,,GLAND THYROID,,,46,2018-11-23,46
20214751,LB,20214751-553,639,IODIDETH,Iodide/Thyroid,,258,ng/mg thyroid,258,258,ng/mg thyroid,,,GLAND THYROID,,,46,2018-11-23,46
20214751,LB,20214751-553,640,IODIDE,Iodide,,2842,ng/thyroid,2842,2842,ng/thyroid,,,GLAND THYROID,,,46,2018-11-23,46
20214751,LB,20214751-553,641,TSH,Thyrotropin,,0.46,ng/mL,0.46,0.46,ng/mL,,,SERUM,,,15,2018-10-23,15
20214751,LB,20214751-553,642,T3,Triiodothyronine,,5.19,ng/mL,5.19,5.19,ng/mL,,,SERUM,,,15,2018-10-23,15
20214751,LB,20214751-553,643,T4,Thyroxine,,331,ng/mL,331,331,ng/mL,,,SERUM,,,15,2018-10-23,15
20214751,LB,20214751-553,644,TSH,Thyrotropin,,0.38,ng/mL,0.38,0.38,ng/mL,,,SERUM,,,28,2018-11-05,28
20214751,LB,20214751-553,645,T3,Triiodothyronine,,6.08,ng/mL,6.08,6.08,ng/mL,,,SERUM,,,28,2018-11-05,28
20214751,LB,20214751-553,646,T4,Thyroxine,,225,ng/mL,225,225,ng/mL,,,SERUM,,,28,2018-11-05,28
20214751,LB,20214751-553,647,TSH,Thyrotropin,,0.47,ng/mL,0.47,0.47,ng/mL,,,SERUM,,,46,2018-11-23,46
20214751,LB,20214751-553,648,T3,Triiodothyronine,,5.65,ng/mL,5.65,5.65,ng/mL,,,SERUM,,,46,2018-11-23,46
20214751,LB,20214751-553,649,T4,Thyroxine,,230,ng/mL,230,230,ng/mL,,,SERUM,,,46,2018-11-23,46
20214751,LB,20214751-554,650,ALT,Alanine Aminotransferase,Serum Chemistry,33,U/L,33,33,U/L,,,,,,46,2018-11-23,46
20214751,LB,20214751-554,651,AST,Aspartate Aminotransferase,Serum Chemistry,72,U/L,72,72,U/L,,,,,,46,2018-11-23,46
20214751,LB,20214751-554,652,CA,Calcium,Serum Chemistry,2.64,mg/dL,2.64,2.64,mg/dL,,,,,,46,2018-11-23,46
20214751,LB,20214751-554,653,CHOL,Cholesterol,Serum Chemistry,59,mg/dL,59,59,mg/dL,,,,,,46,2018-11-23,46
20214751,LB,20214751-554,654,CREAT,Creatinine,Serum Chemistry,0.52,mg/dL,0.52,0.52,mg/dL,,,,,,46,2018-11-23,46
20214751,LB,20214751-554,655,PROT,Protein,Serum Chemistry,6.74,g/dL,6.74,6.74,g/dL,,,,,,46,2018-11-23,46
20214751,LB,20214751-554,656,INIO,Inorganic Iodine,Biomarker,1119,ug/L,1119,1119,ug/L,,,,,,15,2018-10-23,15
20214751,LB,20214751-554,657,INIO,Inorganic Iodine,Biomarker,1508,ug/L,1508,1508,ug/L,,,,,,28,2018-11-05,28
20214751,LB,20214751-554,658,INIO,Inorganic Iodine,Biomarker,693,ug/L,693,693,ug/L,,,,,,46,2018-11-23,46
20214751,LB,20214751-554,659,FE,Follicular epithelium %,Histology,30,%,30,30,%,,,GLAND THYROID,,,46,2018-11-23,46
20214751,LB,20214751-554,660,T3THY,Triiodothyronine/Thyroid,,5.83,ng/mg thyroid,5.83,5.83,ng/mg thyroid,,,GLAND THYROID,,,46,2018-11-23,46
20214751,LB,20214751-554,661,T4THY,Thyroxine/Thyroid,,104.3,ng/mg thyroid,104.3,104.3,ng/mg thyroid,,,GLAND THYROID,,,46,2018-11-23,46
20214751,LB,20214751-554,662,T3,Triiodothyronine,,152,ng/thyroid,152,152,ng/thyroid,,,GLAND THYROID,,,46,2018-11-23,46
20214751,LB,20214751-554,663,T4,Thyroxine,,2712,ng/thyroid,2712,2712,ng/thyroid,,,GLAND THYROID,,,46,2018-11-23,46
20214751,LB,20214751-554,664,IODIDETH,Iodide/Thyroid,,135,ng/mg thyroid,135,135,ng/mg thyroid,,,GLAND THYROID,,,46,2018-11-23,46
20214751,LB,20214751-554,665,IODIDE,Iodide,,3499,ng/thyroid,3499,3499,ng/thyroid,,,GLAND THYROID,,,46,2018-11-23,46
20214751,LB,20214751-554,666,TSH,Thyrotropin,,0.34,ng/mL,0.34,0.34,ng/mL,,,SERUM,,,15,2018-10-23,15
20214751,LB,20214751-554,667,T3,Triiodothyronine,,7.41,ng/mL,7.41,7.41,ng/mL,,,SERUM,,,15,2018-10-23,15
20214751,LB,20214751-554,668,T4,Thyroxine,,649,ng/mL,649,649,ng/mL,,,SERUM,,,15,2018-10-23,15
20214751,LB,20214751-554,669,TSH,Thyrotropin,,0.38,ng/mL,0.38,0.38,ng/mL,,,SERUM,,,28,2018-11-05,28
20214751,LB,20214751-554,670,T3,Triiodothyronine,,7.29,ng/mL,7.29,7.29,ng/mL,,,SERUM,,,28,2018-11-05,28
20214751,LB,20214751-554,671,T4,Thyroxine,,282,ng/mL,282,282,ng/mL,,,SERUM,,,28,2018-11-05,28
20214751,LB,20214751-554,672,TSH,Thyrotropin,,0.69,ng/mL,0.69,0.69,ng/mL,,,SERUM,,,46,2018-11-23,46
20214751,LB,20214751-554,673,T3,Triiodothyronine,,4.26,ng/mL,4.26,4.26,ng/mL,,,SERUM,,,46,2018-11-23,46
20214751,LB,20214751-554,674,T4,Thyroxine,,275,ng/mL,275,275,ng/mL,,,SERUM,,,46,2018-11-23,46
20214751,LB,20214751-555,675,ALT,Alanine Aminotransferase,Serum Chemistry,29,U/L,29,29,U/L,,,,,,46,2018-11-23,46
20214751,LB,20214751-555,676,AST,Aspartate Aminotransferase,Serum Chemistry,70,U/L,70,70,U/L,,,,,,46,2018-11-23,46
20214751,LB,20214751-555,677,CA,Calcium,Serum Chemistry,2.57,mg/dL,2.57,2.57,mg/dL,,,,,,46,2018-11-23,46
20214751,LB,20214751-555,678,CHOL,Cholesterol,Serum Chemistry,48,mg/dL,48,48,mg/dL,,,,,,46,2018-11-23,46
20214751,LB,20214751-555,679,CREAT,Creatinine,Serum Chemistry,0.47,mg/dL,0.47,0.47,mg/dL,,,,,,46,2018-11-23,46
20214751,LB,20214751-555,680,PROT,Protein,Serum Chemistry,6.27,g/dL,6.27,6.27,g/dL,,,,,,46,2018-11-23,46
20214751,LB,20214751-555,681,INIO,Inorganic Iodine,Biomarker,1245,ug/L,1245,1245,ug/L,,,,,,15,2018-10-23,15
20214751,LB,20214751-555,682,INIO,Inorganic Iodine,Biomarker,1098,ug/L,1098,1098,ug/L,,,,,,28,2018-11-05,28
20214751,LB,20214751-555,683,INIO,Inorganic Iodine,Biomarker,810,ug/L,810,810,ug/L,,,,,,46,2018-11-23,46
20214751,LB,20214751-555,684,FE,Follicular epithelium %,Histology,54,%,54,54,%,,,GLAND THYROID,,,46,2018-11-23,46
20214751,LB,20214751-555,685,T3THY,Triiodothyronine/Thyroid,,8.38,ng/mg thyroid,8.38,8.38,ng/mg thyroid,,,GLAND THYROID,,,46,2018-11-23,46
20214751,LB,20214751-555,686,T4THY,Thyroxine/Thyroid,,129.9,ng/mg thyroid,129.9,129.9,ng/mg thyroid,,,GLAND THYROID,,,46,2018-11-23,46
20214751,LB,20214751-555,687,T3,Triiodothyronine,,235,ng/thyroid,235,235,ng/thyroid,,,GLAND THYROID,,,46,2018-11-23,46
20214751,LB,20214751-555,688,T4,Thyroxine,,3637,ng/thyroid,3637,3637,ng/thyroid,,,GLAND THYROID,,,46,2018-11-23,46
20214751,LB,20214751-555,689,IODIDETH,Iodide/Thyroid,,137,ng/mg thyroid,137,137,ng/mg thyroid,,,GLAND THYROID,,,46,2018-11-23,46
20214751,LB,20214751-555,690,IODIDE,Iodide,,3844,ng/thyroid,3844,3844,ng/thyroid,,,GLAND THYROID,,,46,2018-11-23,46
20214751,LB,20214751-555,691,TSH,Thyrotropin,,0.29,ng/mL,0.29,0.29,ng/mL,,,SERUM,,,15,2018-10-23,15
20214751,LB,20214751-555,692,T3,Triiodothyronine,,6.32,ng/mL,6.32,6.32,ng/mL,,,SERUM,,,15,2018-10-23,15
20214751,LB,20214751-555,693,T4,Thyroxine,,288,ng/mL,288,288,ng/mL,,,SERUM,,,15,2018-10-23,15
20214751,LB,20214751-555,694,TSH,Thyrotropin,,0.54,ng/mL,0.54,0.54,ng/mL,,,SERUM,,,28,2018-11-05,28
20214751,LB,20214751-555,695,T3,Triiodothyronine,,6.37,ng/mL,6.37,6.37,ng/mL,,,SERUM,,,28,2018-11-05,28
20214751,LB,20214751-555,696,T4,Thyroxine,,613,ng/mL,613,613,ng/mL,,,SERUM,,,28,2018-11-05,28
20214751,LB,20214751-555,697,TSH,Thyrotropin,,0.46,ng/mL,0.46,0.46,ng/mL,,,SERUM,,,46,2018-11-23,46
20214751,LB,20214751-555,698,T3,Triiodothyronine,,5.44,ng/mL,5.44,5.44,ng/mL,,,SERUM,,,46,2018-11-23,46
20214751,LB,20214751-555,699,T4,Thyroxine,,196,ng/mL,196,196,ng/mL,,,SERUM,,,46,2018-11-23,46
20214751,LB,20214751-556,700,ALT,Alanine Aminotransferase,Serum Chemistry,39,U/L,39,39,U/L,,,,,,46,2018-11-23,46
20214751,LB,20214751-556,701,AST,Aspartate Aminotransferase,Serum Chemistry,72,U/L,72,72,U/L,,,,,,46,2018-11-23,46
20214751,LB,20214751-556,702,CA,Calcium,Serum Chemistry,2.59,mg/dL,2.59,2.59,mg/dL,,,,,,46,2018-11-23,46
20214751,LB,20214751-556,703,CHOL,Cholesterol,Serum Chemistry,60,mg/dL,60,60,mg/dL,,,,,,46,2018-11-23,46
20214751,LB,20214751-556,704,CREAT,Creatinine,Serum Chemistry,0.53,mg/dL,0.53,0.53,mg/dL,,,,,,46,2018-11-23,46
20214751,LB,20214751-556,705,PROT,Protein,Serum Chemistry,6.69,g/dL,6.69,6.69,g/dL,,,,,,46,2018-11-23,46
20214751,LB,20214751-556,706,INIO,Inorganic Iodine,Biomarker,994,ug/L,994,994,ug/L,,,,,,15,2018-10-23,15
20214751,LB,20214751-556,707,INIO,Inorganic Iodine,Biomarker,1500,ug/L,1500,1500,ug/L,,,,,,28,2018-11-05,28
20214751,LB,20214751-556,708,INIO,Inorganic Iodine,Biomarker,992,ug/L,992,992,ug/L,,,,,,46,2018-11-23,46
20214751,LB,20214751-556,709,FE,Follicular epithelium %,Histology,50,%,50,50,%,,,GLAND THYROID,,,46,2018-11-23,46
20214751,LB,20214751-556,710,T3THY,Triiodothyronine/Thyroid,,13.81,ng/mg thyroid,13.81,13.81,ng/mg thyroid,,,GLAND THYROID,,,46,2018-11-23,46
20214751,LB,20214751-556,711,T4THY,Thyroxine/Thyroid,,256.4,ng/mg thyroid,256.4,256.4,ng/mg thyroid,,,GLAND THYROID,,,46,2018-11-23,46
20214751,LB,20214751-556,712,T3,Triiodothyronine,,221,ng/thyroid,221,221,ng/thyroid,,,GLAND THYROID,,,46,2018-11-23,46
20214751,LB,20214751-556,713,T4,Thyroxine,,4103,ng/thyroid,4103,4103,ng/thyroid,,,GLAND THYROID,,,46,2018-11-23,46
20214751,LB,20214751-556,714,IODIDETH,Iodide/Thyroid,,459,ng/mg thyroid,459,459,ng/mg thyroid,,,GLAND THYROID,,,46,2018-11-23,46
20214751,LB,20214751-556,715,IODIDE,Iodide,,7351,ng/thyroid,7351,7351,ng/thyroid,,,GLAND THYROID,,,46,2018-11-23,46
20214751,LB,20214751-556,716,TSH,Thyrotropin,,0.58,ng/mL,0.58,0.58,ng/mL,,,SERUM,,,15,2018-10-23,15
20214751,LB,20214751-556,717,T3,Triiodothyronine,,7.46,ng/mL,7.46,7.46,ng/mL,,,SERUM,,,15,2018-10-23,15
20214751,LB,20214751-556,718,T4,Thyroxine,,650,ng/mL,650,650,ng/mL,,,SERUM,,,15,2018-10-23,15
20214751,LB,20214751-556,719,TSH,Thyrotropin,,0.57,ng/mL,0.57,0.57,ng/mL,,,SERUM,,,28,2018-11-05,28
20214751,LB,20214751-556,720,T3,Triiodothyronine,,6.28,ng/mL,6.28,6.28,ng/mL,,,SERUM,,,28,2018-11-05,28
20214751,LB,20214751-556,721,T4,Thyroxine,,525,ng/mL,525,525,ng/mL,,,SERUM,,,28,2018-11-05,28
20214751,LB,20214751-556,722,TSH,Thyrotropin,,0.70,ng/mL,0.70,0.7,ng/mL,,,SERUM,,,46,2018-11-23,46
20214751,LB,20214751-556,723,T3,Triiodothyronine,,4.56,ng/mL,4.56,4.56,ng/mL,,,SERUM,,,46,2018-11-23,46
20214751,LB,20214751-556,724,T4,Thyroxine,,241,ng/mL,241,241,ng/mL,,,SERUM,,,46,2018-11-23,46
