STUDYID,DOMAIN,USUBJID,PCSEQ,PCTESTCD,PCTEST,PCCAT,PCORRES,PCORRESU,PCSTRESC,PCSTRESN,PCSTRESU,PCSTAT,PCNAM,PCSPEC,PCMETHOD,PCBLFL,PCLLOQ,VISITDY,PCDTC,PCNOMDY,PCNOMLBL,PCTPT,PCTPTNUM,PCELTM,PCTPTREF,PCRFTDTC
20214751,PC,20214751-209,1,C5A,ACT-1014-6470,ANALYTE,BLQ,ng/mL, BLQ,,,BELOW DETECTION LIMIT,Idorsia Pharmaceuticals Ltd,PLASMA,LC-MS/MS,,1,1,2019-09-12T08:00,1,,0.5H,0.5,PT0.5H,Day 1 Dosing,
20214751,PC,20214751-210,2,C5A,ACT-1014-6470,ANALYTE,BLQ,ng/mL,BLQ,,,BELOW DETECTION LIMIT,Idorsia Pharmaceuticals Ltd,PLASMA,LC-MS/MS,,1,1,2019-09-12T08:00,1,,0.5H,0.5,PT0.5H,Day 1 Dosing,
20214751,PC,20214751-211,3,C5A,ACT-1014-6470,ANALYTE,BLQ,ng/mL,BLQ,,,BELOW DETECTION LIMIT,Idorsia Pharmaceuticals Ltd,PLASMA,LC-MS/MS,,1,1,2019-09-12T08:00,1,,0.5H,0.5,PT0.5H,Day 1 Dosing,
20214751,PC,20214751-215,4,C5A,ACT-1014-6470,ANALYTE,BLQ,ng/mL,BLQ,,,BELOW DETECTION LIMIT,Idorsia Pharmaceuticals Ltd,PLASMA,LC-MS/MS,,1,1,2019-09-12T08:00,1,,0.5H,0.5,PT0.5H,Day 1 Dosing,
20214751,PC,20214751-216,5,C5A,ACT-1014-6470,ANALYTE,BLQ,ng/mL,BLQ,,,BELOW DETECTION LIMIT,Idorsia Pharmaceuticals Ltd,PLASMA,LC-MS/MS,,1,1,2019-09-12T08:00,1,,0.5H,0.5,PT0.5H,Day 1 Dosing,
20214751,PC,20214751-217,6,C5A,ACT-1014-6470,ANALYTE,BLQ,ng/mL,BLQ,,,BELOW DETECTION LIMIT,Idorsia Pharmaceuticals Ltd,PLASMA,LC-MS/MS,,1,1,2019-09-12T08:00,1,,0.5H,0.5,PT0.5H,Day 1 Dosing,
20214751,PC,20214751-221,7,C5A,ACT-1014-6470,ANALYTE,277,ng/mL,277,277,ng/mL,,Idorsia Pharmaceuticals Ltd,PLASMA,LC-MS/MS,,1,1,2019-09-12T08:00,1,,0.5H,0.5,PT0.5H,Day 1 Dosing,
20214751,PC,20214751-222,8,C5A,ACT-1014-6470,ANALYTE,279,ng/mL,279,279,ng/mL,,Idorsia Pharmaceuticals Ltd,PLASMA,LC-MS/MS,,1,1,2019-09-12T08:00,1,,0.5H,0.5,PT0.5H,Day 1 Dosing,
20214751,PC,20214751-223,9,C5A,ACT-1014-6470,ANALYTE,213,ng/mL,213,213,ng/mL,,Idorsia Pharmaceuticals Ltd,PLASMA,LC-MS/MS,,1,1,2019-09-12T08:00,1,,0.5H,0.5,PT0.5H,Day 1 Dosing,
20214751,PC,20214751-227,10,C5A,ACT-1014-6470,ANALYTE,330,ng/mL,330,330,ng/mL,,Idorsia Pharmaceuticals Ltd,PLASMA,LC-MS/MS,,1,1,2019-09-12T08:00,1,,0.5H,0.5,PT0.5H,Day 1 Dosing,
20214751,PC,20214751-228,11,C5A,ACT-1014-6470,ANALYTE,194,ng/mL,194,194,ng/mL,,Idorsia Pharmaceuticals Ltd,PLASMA,LC-MS/MS,,1,1,2019-09-12T08:00,1,,0.5H,0.5,PT0.5H,Day 1 Dosing,
20214751,PC,20214751-229,12,C5A,ACT-1014-6470,ANALYTE,202,ng/mL,202,202,ng/mL,,Idorsia Pharmaceuticals Ltd,PLASMA,LC-MS/MS,,1,1,2019-09-12T08:00,1,,0.5H,0.5,PT0.5H,Day 1 Dosing,
20214751,PC,20214751-233,13,C5A,ACT-1014-6470,ANALYTE,702,ng/mL,702,702,ng/mL,,Idorsia Pharmaceuticals Ltd,PLASMA,LC-MS/MS,,1,1,2019-09-12T08:00,1,,0.5H,0.5,PT0.5H,Day 1 Dosing,
20214751,PC,20214751-234,14,C5A,ACT-1014-6470,ANALYTE,979,ng/mL,979,979,ng/mL,,Idorsia Pharmaceuticals Ltd,PLASMA,LC-MS/MS,,1,1,2019-09-12T08:00,1,,0.5H,0.5,PT0.5H,Day 1 Dosing,
20214751,PC,20214751-235,15,C5A,ACT-1014-6470,ANALYTE,809,ng/mL,809,809,ng/mL,,Idorsia Pharmaceuticals Ltd,PLASMA,LC-MS/MS,,1,1,2019-09-12T08:00,1,,0.5H,0.5,PT0.5H,Day 1 Dosing,
20214751,PC,20214751-239,16,C5A,ACT-1014-6470,ANALYTE,647,ng/mL,647,647,ng/mL,,Idorsia Pharmaceuticals Ltd,PLASMA,LC-MS/MS,,1,1,2019-09-12T08:00,1,,0.5H,0.5,PT0.5H,Day 1 Dosing,
20214751,PC,20214751-240,17,C5A,ACT-1014-6470,ANALYTE,876,ng/mL,876,876,ng/mL,,Idorsia Pharmaceuticals Ltd,PLASMA,LC-MS/MS,,1,1,2019-09-12T08:00,1,,0.5H,0.5,PT0.5H,Day 1 Dosing,
20214751,PC,20214751-241,18,C5A,ACT-1014-6470,ANALYTE,290,ng/mL,290,290,ng/mL,,Idorsia Pharmaceuticals Ltd,PLASMA,LC-MS/MS,,1,1,2019-09-12T08:00,1,,0.5H,0.5,PT0.5H,Day 1 Dosing,
20214751,PC,20214751-245,19,C5A,ACT-1014-6470,ANALYTE,1940,ng/mL,1940,1940,ng/mL,,Idorsia Pharmaceuticals Ltd,PLASMA,LC-MS/MS,,1,1,2019-09-12T08:00,1,,0.5H,0.5,PT0.5H,Day 1 Dosing,
20214751,PC,20214751-246,20,C5A,ACT-1014-6470,ANALYTE,1720,ng/mL,1720,1720,ng/mL,,Idorsia Pharmaceuticals Ltd,PLASMA,LC-MS/MS,,1,1,2019-09-12T08:00,1,,0.5H,0.5,PT0.5H,Day 1 Dosing,
20214751,PC,20214751-247,21,C5A,ACT-1014-6470,ANALYTE,1960,ng/mL,1960,1960,ng/mL,,Idorsia Pharmaceuticals Ltd,PLASMA,LC-MS/MS,,1,1,2019-09-12T08:00,1,,0.5H,0.5,PT0.5H,Day 1 Dosing,
20214751,PC,20214751-251,22,C5A,ACT-1014-6470,ANALYTE,1920,ng/mL,1920,1920,ng/mL,,Idorsia Pharmaceuticals Ltd,PLASMA,LC-MS/MS,,1,1,2019-09-12T08:00,1,,0.5H,0.5,PT0.5H,Day 1 Dosing,
20214751,PC,20214751-252,23,C5A,ACT-1014-6470,ANALYTE,826,ng/mL,826,826,ng/mL,,Idorsia Pharmaceuticals Ltd,PLASMA,LC-MS/MS,,1,1,2019-09-12T08:00,1,,0.5H,0.5,PT0.5H,Day 1 Dosing,
20214751,PC,20214751-253,24,C5A,ACT-1014-6470,ANALYTE,770,ng/mL,770,770,ng/mL,,Idorsia Pharmaceuticals Ltd,PLASMA,LC-MS/MS,,1,1,2019-09-12T08:00,1,,0.5H,0.5,PT0.5H,Day 1 Dosing,
20214751,PC,20214751-212,25,C5A,ACT-1014-6470,ANALYTE,BLQ,ng/mL,BLQ,,,BELOW DETECTION LIMIT,Idorsia Pharmaceuticals Ltd,PLASMA,LC-MS/MS,,1,1,2019-09-12T08:30,1,,1H,1,PT1H,Day 1 Dosing,
20214751,PC,20214751-213,26,C5A,ACT-1014-6470,ANALYTE,BLQ,ng/mL,BLQ,,,BELOW DETECTION LIMIT,Idorsia Pharmaceuticals Ltd,PLASMA,LC-MS/MS,,1,1,2019-09-12T08:30,1,,1H,1,PT1H,Day 1 Dosing,
20214751,PC,20214751-214,27,C5A,ACT-1014-6470,ANALYTE,BLQ,ng/mL,BLQ,,,BELOW DETECTION LIMIT,Idorsia Pharmaceuticals Ltd,PLASMA,LC-MS/MS,,1,1,2019-09-12T08:30,1,,1H,1,PT1H,Day 1 Dosing,
20214751,PC,20214751-218,28,C5A,ACT-1014-6470,ANALYTE,BLQ,ng/mL,BLQ,,,BELOW DETECTION LIMIT,Idorsia Pharmaceuticals Ltd,PLASMA,LC-MS/MS,,1,1,2019-09-12T08:30,1,,1H,1,PT1H,Day 1 Dosing,
20214751,PC,20214751-219,29,C5A,ACT-1014-6470,ANALYTE,BLQ,ng/mL,BLQ,,,BELOW DETECTION LIMIT,Idorsia Pharmaceuticals Ltd,PLASMA,LC-MS/MS,,1,1,2019-09-12T08:30,1,,1H,1,PT1H,Day 1 Dosing,
20214751,PC,20214751-220,30,C5A,ACT-1014-6470,ANALYTE,BLQ,ng/mL,BLQ,,,BELOW DETECTION LIMIT,Idorsia Pharmaceuticals Ltd,PLASMA,LC-MS/MS,,1,1,2019-09-12T08:30,1,,1H,1,PT1H,Day 1 Dosing,
20214751,PC,20214751-224,31,C5A,ACT-1014-6470,ANALYTE,743,ng/mL,743,743,ng/mL,,Idorsia Pharmaceuticals Ltd,PLASMA,LC-MS/MS,,1,1,2019-09-12T08:30,1,,1H,1,PT1H,Day 1 Dosing,
20214751,PC,20214751-225,32,C5A,ACT-1014-6470,ANALYTE,635,ng/mL,635,635,ng/mL,,Idorsia Pharmaceuticals Ltd,PLASMA,LC-MS/MS,,1,1,2019-09-12T08:30,1,,1H,1,PT1H,Day 1 Dosing,
20214751,PC,20214751-226,33,C5A,ACT-1014-6470,ANALYTE,509,ng/mL,509,509,ng/mL,,Idorsia Pharmaceuticals Ltd,PLASMA,LC-MS/MS,,1,1,2019-09-12T08:30,1,,1H,1,PT1H,Day 1 Dosing,
20214751,PC,20214751-230,34,C5A,ACT-1014-6470,ANALYTE,384,ng/mL,384,384,ng/mL,,Idorsia Pharmaceuticals Ltd,PLASMA,LC-MS/MS,,1,1,2019-09-12T08:30,1,,1H,1,PT1H,Day 1 Dosing,
20214751,PC,20214751-231,35,C5A,ACT-1014-6470,ANALYTE,820,ng/mL,820,820,ng/mL,,Idorsia Pharmaceuticals Ltd,PLASMA,LC-MS/MS,,1,1,2019-09-12T08:30,1,,1H,1,PT1H,Day 1 Dosing,
20214751,PC,20214751-232,36,C5A,ACT-1014-6470,ANALYTE,643,ng/mL,643,643,ng/mL,,Idorsia Pharmaceuticals Ltd,PLASMA,LC-MS/MS,,1,1,2019-09-12T08:30,1,,1H,1,PT1H,Day 1 Dosing,
20214751,PC,20214751-236,37,C5A,ACT-1014-6470,ANALYTE,1670,ng/mL,1670,1670,ng/mL,,Idorsia Pharmaceuticals Ltd,PLASMA,LC-MS/MS,,1,1,2019-09-12T08:30,1,,1H,1,PT1H,Day 1 Dosing,
20214751,PC,20214751-237,38,C5A,ACT-1014-6470,ANALYTE,2230,ng/mL,2230,2230,ng/mL,,Idorsia Pharmaceuticals Ltd,PLASMA,LC-MS/MS,,1,1,2019-09-12T08:30,1,,1H,1,PT1H,Day 1 Dosing,
20214751,PC,20214751-238,39,C5A,ACT-1014-6470,ANALYTE,1040,ng/mL,1040,1040,ng/mL,,Idorsia Pharmaceuticals Ltd,PLASMA,LC-MS/MS,,1,1,2019-09-12T08:30,1,,1H,1,PT1H,Day 1 Dosing,
20214751,PC,20214751-242,40,C5A,ACT-1014-6470,ANALYTE,1130,ng/mL,1130,1130,ng/mL,,Idorsia Pharmaceuticals Ltd,PLASMA,LC-MS/MS,,1,1,2019-09-12T08:30,1,,1H,1,PT1H,Day 1 Dosing,
20214751,PC,20214751-243,41,C5A,ACT-1014-6470,ANALYTE,1390,ng/mL,1390,1390,ng/mL,,Idorsia Pharmaceuticals Ltd,PLASMA,LC-MS/MS,,1,1,2019-09-12T08:30,1,,1H,1,PT1H,Day 1 Dosing,
20214751,PC,20214751-244,42,C5A,ACT-1014-6470,ANALYTE,1320,ng/mL,1320,1320,ng/mL,,Idorsia Pharmaceuticals Ltd,PLASMA,LC-MS/MS,,1,1,2019-09-12T08:30,1,,1H,1,PT1H,Day 1 Dosing,
20214751,PC,20214751-248,43,C5A,ACT-1014-6470,ANALYTE,1960,ng/mL,1960,1960,ng/mL,,Idorsia Pharmaceuticals Ltd,PLASMA,LC-MS/MS,,1,1,2019-09-12T08:30,1,,1H,1,PT1H,Day 1 Dosing,
20214751,PC,20214751-249,44,C5A,ACT-1014-6470,ANALYTE,3520,ng/mL,3520,3520,ng/mL,,Idorsia Pharmaceuticals Ltd,PLASMA,LC-MS/MS,,1,1,2019-09-12T08:30,1,,1H,1,PT1H,Day 1 Dosing,
20214751,PC,20214751-250,45,C5A,ACT-1014-6470,ANALYTE,5040,ng/mL,5040,5040,ng/mL,,Idorsia Pharmaceuticals Ltd,PLASMA,LC-MS/MS,,1,1,2019-09-12T08:30,1,,1H,1,PT1H,Day 1 Dosing,
20214751,PC,20214751-254,46,C5A,ACT-1014-6470,ANALYTE,3930,ng/mL,3930,3930,ng/mL,,Idorsia Pharmaceuticals Ltd,PLASMA,LC-MS/MS,,1,1,2019-09-12T08:30,1,,1H,1,PT1H,Day 1 Dosing,
20214751,PC,20214751-255,47,C5A,ACT-1014-6470,ANALYTE,3960,ng/mL,3960,3960,ng/mL,,Idorsia Pharmaceuticals Ltd,PLASMA,LC-MS/MS,,1,1,2019-09-12T08:30,1,,1H,1,PT1H,Day 1 Dosing,
20214751,PC,20214751-256,48,C5A,ACT-1014-6470,ANALYTE,3330,ng/mL,3330,3330,ng/mL,,Idorsia Pharmaceuticals Ltd,PLASMA,LC-MS/MS,,1,1,2019-09-12T08:30,1,,1H,1,PT1H,Day 1 Dosing,
20214751,PC,20214751-209,49,C5A,ACT-1014-6470,ANALYTE,BLQ,ng/mL,BLQ,,,BELOW DETECTION LIMIT,Idorsia Pharmaceuticals Ltd,PLASMA,LC-MS/MS,,1,1,2019-09-12T09:30,1,,2H,2,PT2H,Day 1 Dosing,
20214751,PC,20214751-210,50,C5A,ACT-1014-6470,ANALYTE,BLQ,ng/mL,BLQ,,,BELOW DETECTION LIMIT,Idorsia Pharmaceuticals Ltd,PLASMA,LC-MS/MS,,1,1,2019-09-12T09:30,1,,2H,2,PT2H,Day 1 Dosing,
20214751,PC,20214751-211,51,C5A,ACT-1014-6470,ANALYTE,BLQ,ng/mL,BLQ,,,BELOW DETECTION LIMIT,Idorsia Pharmaceuticals Ltd,PLASMA,LC-MS/MS,,1,1,2019-09-12T09:30,1,,2H,2,PT2H,Day 1 Dosing,
20214751,PC,20214751-215,52,C5A,ACT-1014-6470,ANALYTE,BLQ,ng/mL,BLQ,,,BELOW DETECTION LIMIT,Idorsia Pharmaceuticals Ltd,PLASMA,LC-MS/MS,,1,1,2019-09-12T09:30,1,,2H,2,PT2H,Day 1 Dosing,
20214751,PC,20214751-216,53,C5A,ACT-1014-6470,ANALYTE,BLQ,ng/mL,BLQ,,,BELOW DETECTION LIMIT,Idorsia Pharmaceuticals Ltd,PLASMA,LC-MS/MS,,1,1,2019-09-12T09:30,1,,2H,2,PT2H,Day 1 Dosing,
20214751,PC,20214751-217,54,C5A,ACT-1014-6470,ANALYTE,BLQ,ng/mL,BLQ,,,BELOW DETECTION LIMIT,Idorsia Pharmaceuticals Ltd,PLASMA,LC-MS/MS,,1,1,2019-09-12T09:30,1,,2H,2,PT2H,Day 1 Dosing,
20214751,PC,20214751-221,55,C5A,ACT-1014-6470,ANALYTE,734,ng/mL,734,734,ng/mL,,Idorsia Pharmaceuticals Ltd,PLASMA,LC-MS/MS,,1,1,2019-09-12T09:30,1,,2H,2,PT2H,Day 1 Dosing,
20214751,PC,20214751-222,56,C5A,ACT-1014-6470,ANALYTE,694,ng/mL,694,694,ng/mL,,Idorsia Pharmaceuticals Ltd,PLASMA,LC-MS/MS,,1,1,2019-09-12T09:30,1,,2H,2,PT2H,Day 1 Dosing,
20214751,PC,20214751-223,57,C5A,ACT-1014-6470,ANALYTE,537,ng/mL,537,537,ng/mL,,Idorsia Pharmaceuticals Ltd,PLASMA,LC-MS/MS,,1,1,2019-09-12T09:30,1,,2H,2,PT2H,Day 1 Dosing,
20214751,PC,20214751-227,58,C5A,ACT-1014-6470,ANALYTE,838,ng/mL,838,838,ng/mL,,Idorsia Pharmaceuticals Ltd,PLASMA,LC-MS/MS,,1,1,2019-09-12T09:30,1,,2H,2,PT2H,Day 1 Dosing,
20214751,PC,20214751-228,59,C5A,ACT-1014-6470,ANALYTE,309,ng/mL,309,309,ng/mL,,Idorsia Pharmaceuticals Ltd,PLASMA,LC-MS/MS,,1,1,2019-09-12T09:30,1,,2H,2,PT2H,Day 1 Dosing,
20214751,PC,20214751-229,60,C5A,ACT-1014-6470,ANALYTE,324,ng/mL,324,324,ng/mL,,Idorsia Pharmaceuticals Ltd,PLASMA,LC-MS/MS,,1,1,2019-09-12T09:30,1,,2H,2,PT2H,Day 1 Dosing,
20214751,PC,20214751-233,61,C5A,ACT-1014-6470,ANALYTE,1420,ng/mL,1420,1420,ng/mL,,Idorsia Pharmaceuticals Ltd,PLASMA,LC-MS/MS,,1,1,2019-09-12T09:30,1,,2H,2,PT2H,Day 1 Dosing,
20214751,PC,20214751-234,62,C5A,ACT-1014-6470,ANALYTE,2850,ng/mL,2850,2850,ng/mL,,Idorsia Pharmaceuticals Ltd,PLASMA,LC-MS/MS,,1,1,2019-09-12T09:30,1,,2H,2,PT2H,Day 1 Dosing,
20214751,PC,20214751-235,63,C5A,ACT-1014-6470,ANALYTE,1230,ng/mL,1230,1230,ng/mL,,Idorsia Pharmaceuticals Ltd,PLASMA,LC-MS/MS,,1,1,2019-09-12T09:30,1,,2H,2,PT2H,Day 1 Dosing,
20214751,PC,20214751-239,64,C5A,ACT-1014-6470,ANALYTE,2360,ng/mL,2360,2360,ng/mL,,Idorsia Pharmaceuticals Ltd,PLASMA,LC-MS/MS,,1,1,2019-09-12T09:30,1,,2H,2,PT2H,Day 1 Dosing,
20214751,PC,20214751-240,65,C5A,ACT-1014-6470,ANALYTE,2200,ng/mL,2200,2200,ng/mL,,Idorsia Pharmaceuticals Ltd,PLASMA,LC-MS/MS,,1,1,2019-09-12T09:30,1,,2H,2,PT2H,Day 1 Dosing,
20214751,PC,20214751-241,66,C5A,ACT-1014-6470,ANALYTE,1270,ng/mL,1270,1270,ng/mL,,Idorsia Pharmaceuticals Ltd,PLASMA,LC-MS/MS,,1,1,2019-09-12T09:30,1,,2H,2,PT2H,Day 1 Dosing,
20214751,PC,20214751-245,67,C5A,ACT-1014-6470,ANALYTE,4030,ng/mL,4030,4030,ng/mL,,Idorsia Pharmaceuticals Ltd,PLASMA,LC-MS/MS,,1,1,2019-09-12T09:30,1,,2H,2,PT2H,Day 1 Dosing,
20214751,PC,20214751-246,68,C5A,ACT-1014-6470,ANALYTE,2680,ng/mL,2680,2680,ng/mL,,Idorsia Pharmaceuticals Ltd,PLASMA,LC-MS/MS,,1,1,2019-09-12T09:30,1,,2H,2,PT2H,Day 1 Dosing,
20214751,PC,20214751-247,69,C5A,ACT-1014-6470,ANALYTE,4870,ng/mL,4870,4870,ng/mL,,Idorsia Pharmaceuticals Ltd,PLASMA,LC-MS/MS,,1,1,2019-09-12T09:30,1,,2H,2,PT2H,Day 1 Dosing,
20214751,PC,20214751-251,70,C5A,ACT-1014-6470,ANALYTE,6170,ng/mL,6170,6170,ng/mL,,Idorsia Pharmaceuticals Ltd,PLASMA,LC-MS/MS,,1,1,2019-09-12T09:30,1,,2H,2,PT2H,Day 1 Dosing,
20214751,PC,20214751-252,71,C5A,ACT-1014-6470,ANALYTE,1350,ng/mL,1350,1350,ng/mL,,Idorsia Pharmaceuticals Ltd,PLASMA,LC-MS/MS,,1,1,2019-09-12T09:30,1,,2H,2,PT2H,Day 1 Dosing,
20214751,PC,20214751-253,72,C5A,ACT-1014-6470,ANALYTE,1300,ng/mL,1300,1300,ng/mL,,Idorsia Pharmaceuticals Ltd,PLASMA,LC-MS/MS,,1,1,2019-09-12T09:30,1,,2H,2,PT2H,Day 1 Dosing,
20214751,PC,20214751-212,73,C5A,ACT-1014-6470,ANALYTE,BLQ,ng/mL,BLQ,,,BELOW DETECTION LIMIT,Idorsia Pharmaceuticals Ltd,PLASMA,LC-MS/MS,,1,1,2019-09-12T11:30,1,,4H,4,PT4H,Day 1 Dosing,
20214751,PC,20214751-213,74,C5A,ACT-1014-6470,ANALYTE,BLQ,ng/mL,BLQ,,,BELOW DETECTION LIMIT,Idorsia Pharmaceuticals Ltd,PLASMA,LC-MS/MS,,1,1,2019-09-12T11:30,1,,4H,4,PT4H,Day 1 Dosing,
20214751,PC,20214751-214,75,C5A,ACT-1014-6470,ANALYTE,BLQ,ng/mL,BLQ,,,BELOW DETECTION LIMIT,Idorsia Pharmaceuticals Ltd,PLASMA,LC-MS/MS,,1,1,2019-09-12T11:30,1,,4H,4,PT4H,Day 1 Dosing,
20214751,PC,20214751-218,76,C5A,ACT-1014-6470,ANALYTE,BLQ,ng/mL,BLQ,,,BELOW DETECTION LIMIT,Idorsia Pharmaceuticals Ltd,PLASMA,LC-MS/MS,,1,1,2019-09-12T11:30,1,,4H,4,PT4H,Day 1 Dosing,
20214751,PC,20214751-219,77,C5A,ACT-1014-6470,ANALYTE,BLQ,ng/mL,BLQ,,,BELOW DETECTION LIMIT,Idorsia Pharmaceuticals Ltd,PLASMA,LC-MS/MS,,1,1,2019-09-12T11:30,1,,4H,4,PT4H,Day 1 Dosing,
20214751,PC,20214751-220,78,C5A,ACT-1014-6470,ANALYTE,BLQ,ng/mL,BLQ,,,BELOW DETECTION LIMIT,Idorsia Pharmaceuticals Ltd,PLASMA,LC-MS/MS,,1,1,2019-09-12T11:30,1,,4H,4,PT4H,Day 1 Dosing,
20214751,PC,20214751-224,79,C5A,ACT-1014-6470,ANALYTE,454,ng/mL,454,454,ng/mL,,Idorsia Pharmaceuticals Ltd,PLASMA,LC-MS/MS,,1,1,2019-09-12T11:30,1,,4H,4,PT4H,Day 1 Dosing,
20214751,PC,20214751-225,80,C5A,ACT-1014-6470,ANALYTE,536,ng/mL,536,536,ng/mL,,Idorsia Pharmaceuticals Ltd,PLASMA,LC-MS/MS,,1,1,2019-09-12T11:30,1,,4H,4,PT4H,Day 1 Dosing,
20214751,PC,20214751-226,81,C5A,ACT-1014-6470,ANALYTE,513,ng/mL,513,513,ng/mL,,Idorsia Pharmaceuticals Ltd,PLASMA,LC-MS/MS,,1,1,2019-09-12T11:30,1,,4H,4,PT4H,Day 1 Dosing,
20214751,PC,20214751-230,82,C5A,ACT-1014-6470,ANALYTE,557,ng/mL,557,557,ng/mL,,Idorsia Pharmaceuticals Ltd,PLASMA,LC-MS/MS,,1,1,2019-09-12T11:30,1,,4H,4,PT4H,Day 1 Dosing,
20214751,PC,20214751-231,83,C5A,ACT-1014-6470,ANALYTE,227,ng/mL,227,227,ng/mL,,Idorsia Pharmaceuticals Ltd,PLASMA,LC-MS/MS,,1,1,2019-09-12T11:30,1,,4H,4,PT4H,Day 1 Dosing,
20214751,PC,20214751-232,84,C5A,ACT-1014-6470,ANALYTE,656,ng/mL,656,656,ng/mL,,Idorsia Pharmaceuticals Ltd,PLASMA,LC-MS/MS,,1,1,2019-09-12T11:30,1,,4H,4,PT4H,Day 1 Dosing,
20214751,PC,20214751-236,85,C5A,ACT-1014-6470,ANALYTE,1510,ng/mL,1510,1510,ng/mL,,Idorsia Pharmaceuticals Ltd,PLASMA,LC-MS/MS,,1,1,2019-09-12T11:30,1,,4H,4,PT4H,Day 1 Dosing,
20214751,PC,20214751-237,86,C5A,ACT-1014-6470,ANALYTE,2590,ng/mL,2590,2590,ng/mL,,Idorsia Pharmaceuticals Ltd,PLASMA,LC-MS/MS,,1,1,2019-09-12T11:30,1,,4H,4,PT4H,Day 1 Dosing,
20214751,PC,20214751-238,87,C5A,ACT-1014-6470,ANALYTE,681,ng/mL,681,681,ng/mL,,Idorsia Pharmaceuticals Ltd,PLASMA,LC-MS/MS,,1,1,2019-09-12T11:30,1,,4H,4,PT4H,Day 1 Dosing,
20214751,PC,20214751-242,88,C5A,ACT-1014-6470,ANALYTE,932,ng/mL,932,932,ng/mL,,Idorsia Pharmaceuticals Ltd,PLASMA,LC-MS/MS,,1,1,2019-09-12T11:30,1,,4H,4,PT4H,Day 1 Dosing,
20214751,PC,20214751-243,89,C5A,ACT-1014-6470,ANALYTE,1750,ng/mL,1750,1750,ng/mL,,Idorsia Pharmaceuticals Ltd,PLASMA,LC-MS/MS,,1,1,2019-09-12T11:30,1,,4H,4,PT4H,Day 1 Dosing,
20214751,PC,20214751-244,90,C5A,ACT-1014-6470,ANALYTE,1690,ng/mL,1690,1690,ng/mL,,Idorsia Pharmaceuticals Ltd,PLASMA,LC-MS/MS,,1,1,2019-09-12T11:30,1,,4H,4,PT4H,Day 1 Dosing,
20214751,PC,20214751-248,91,C5A,ACT-1014-6470,ANALYTE,741,ng/mL,741,741,ng/mL,,Idorsia Pharmaceuticals Ltd,PLASMA,LC-MS/MS,,1,1,2019-09-12T11:30,1,,4H,4,PT4H,Day 1 Dosing,
20214751,PC,20214751-249,92,C5A,ACT-1014-6470,ANALYTE,1280,ng/mL,1280,1280,ng/mL,,Idorsia Pharmaceuticals Ltd,PLASMA,LC-MS/MS,,1,1,2019-09-12T11:30,1,,4H,4,PT4H,Day 1 Dosing,
20214751,PC,20214751-250,93,C5A,ACT-1014-6470,ANALYTE,5550,ng/mL,5550,5550,ng/mL,,Idorsia Pharmaceuticals Ltd,PLASMA,LC-MS/MS,,1,1,2019-09-12T11:30,1,,4H,4,PT4H,Day 1 Dosing,
20214751,PC,20214751-254,94,C5A,ACT-1014-6470,ANALYTE,1330,ng/mL,1330,1330,ng/mL,,Idorsia Pharmaceuticals Ltd,PLASMA,LC-MS/MS,,1,1,2019-09-12T11:30,1,,4H,4,PT4H,Day 1 Dosing,
20214751,PC,20214751-255,95,C5A,ACT-1014-6470,ANALYTE,1790,ng/mL,1790,1790,ng/mL,,Idorsia Pharmaceuticals Ltd,PLASMA,LC-MS/MS,,1,1,2019-09-12T11:30,1,,4H,4,PT4H,Day 1 Dosing,
20214751,PC,20214751-256,96,C5A,ACT-1014-6470,ANALYTE,1820,ng/mL,1820,1820,ng/mL,,Idorsia Pharmaceuticals Ltd,PLASMA,LC-MS/MS,,1,1,2019-09-12T11:30,1,,4H,4,PT4H,Day 1 Dosing,
20214751,PC,20214751-209,97,C5A,ACT-1014-6470,ANALYTE,BLQ,ng/mL,BLQ,,,BELOW DETECTION LIMIT,Idorsia Pharmaceuticals Ltd,PLASMA,LC-MS/MS,,1,1,2019-09-12T15:30,1,,8H,8,PT8H,Day 1 Dosing,
20214751,PC,20214751-210,98,C5A,ACT-1014-6470,ANALYTE,BLQ,ng/mL,BLQ,,,BELOW DETECTION LIMIT,Idorsia Pharmaceuticals Ltd,PLASMA,LC-MS/MS,,1,1,2019-09-12T15:30,1,,8H,8,PT8H,Day 1 Dosing,
20214751,PC,20214751-211,99,C5A,ACT-1014-6470,ANALYTE,BLQ,ng/mL,BLQ,,,BELOW DETECTION LIMIT,Idorsia Pharmaceuticals Ltd,PLASMA,LC-MS/MS,,1,1,2019-09-12T15:30,1,,8H,8,PT8H,Day 1 Dosing,
20214751,PC,20214751-215,100,C5A,ACT-1014-6470,ANALYTE,BLQ,ng/mL,BLQ,,,BELOW DETECTION LIMIT,Idorsia Pharmaceuticals Ltd,PLASMA,LC-MS/MS,,1,1,2019-09-12T15:30,1,,8H,8,PT8H,Day 1 Dosing,
20214751,PC,20214751-216,101,C5A,ACT-1014-6470,ANALYTE,BLQ,ng/mL,BLQ,,,BELOW DETECTION LIMIT,Idorsia Pharmaceuticals Ltd,PLASMA,LC-MS/MS,,1,1,2019-09-12T15:30,1,,8H,8,PT8H,Day 1 Dosing,
20214751,PC,20214751-217,102,C5A,ACT-1014-6470,ANALYTE,BLQ,ng/mL,BLQ,,,BELOW DETECTION LIMIT,Idorsia Pharmaceuticals Ltd,PLASMA,LC-MS/MS,,1,1,2019-09-12T15:30,1,,8H,8,PT8H,Day 1 Dosing,
20214751,PC,20214751-221,103,C5A,ACT-1014-6470,ANALYTE,193,ng/mL,193,193,ng/mL,,Idorsia Pharmaceuticals Ltd,PLASMA,LC-MS/MS,,1,1,2019-09-12T15:30,1,,8H,8,PT8H,Day 1 Dosing,
20214751,PC,20214751-222,104,C5A,ACT-1014-6470,ANALYTE,245,ng/mL,245,245,ng/mL,,Idorsia Pharmaceuticals Ltd,PLASMA,LC-MS/MS,,1,1,2019-09-12T15:30,1,,8H,8,PT8H,Day 1 Dosing,
20214751,PC,20214751-223,105,C5A,ACT-1014-6470,ANALYTE,300,ng/mL,300,300,ng/mL,,Idorsia Pharmaceuticals Ltd,PLASMA,LC-MS/MS,,1,1,2019-09-12T15:30,1,,8H,8,PT8H,Day 1 Dosing,
20214751,PC,20214751-227,106,C5A,ACT-1014-6470,ANALYTE,334,ng/mL,334,334,ng/mL,,Idorsia Pharmaceuticals Ltd,PLASMA,LC-MS/MS,,1,1,2019-09-12T15:30,1,,8H,8,PT8H,Day 1 Dosing,
20214751,PC,20214751-228,107,C5A,ACT-1014-6470,ANALYTE,83.4,ng/mL,83.4,83.4,ng/mL,,Idorsia Pharmaceuticals Ltd,PLASMA,LC-MS/MS,,1,1,2019-09-12T15:30,1,,8H,8,PT8H,Day 1 Dosing,
20214751,PC,20214751-229,108,C5A,ACT-1014-6470,ANALYTE,124,ng/mL,124,124,ng/mL,,Idorsia Pharmaceuticals Ltd,PLASMA,LC-MS/MS,,1,1,2019-09-12T15:30,1,,8H,8,PT8H,Day 1 Dosing,
20214751,PC,20214751-233,109,C5A,ACT-1014-6470,ANALYTE,684,ng/mL,684,684,ng/mL,,Idorsia Pharmaceuticals Ltd,PLASMA,LC-MS/MS,,1,1,2019-09-12T15:30,1,,8H,8,PT8H,Day 1 Dosing,
20214751,PC,20214751-234,110,C5A,ACT-1014-6470,ANALYTE,1530,ng/mL,1530,1530,ng/mL,,Idorsia Pharmaceuticals Ltd,PLASMA,LC-MS/MS,,1,1,2019-09-12T15:30,1,,8H,8,PT8H,Day 1 Dosing,
20214751,PC,20214751-235,111,C5A,ACT-1014-6470,ANALYTE,643,ng/mL,643,643,ng/mL,,Idorsia Pharmaceuticals Ltd,PLASMA,LC-MS/MS,,1,1,2019-09-12T15:30,1,,8H,8,PT8H,Day 1 Dosing,
20214751,PC,20214751-239,112,C5A,ACT-1014-6470,ANALYTE,1550,ng/mL,1550,1550,ng/mL,,Idorsia Pharmaceuticals Ltd,PLASMA,LC-MS/MS,,1,1,2019-09-12T15:30,1,,8H,8,PT8H,Day 1 Dosing,
20214751,PC,20214751-240,113,C5A,ACT-1014-6470,ANALYTE,1750,ng/mL,1750,1750,ng/mL,,Idorsia Pharmaceuticals Ltd,PLASMA,LC-MS/MS,,1,1,2019-09-12T15:30,1,,8H,8,PT8H,Day 1 Dosing,
20214751,PC,20214751-241,114,C5A,ACT-1014-6470,ANALYTE,1040,ng/mL,1040,1040,ng/mL,,Idorsia Pharmaceuticals Ltd,PLASMA,LC-MS/MS,,1,1,2019-09-12T15:30,1,,8H,8,PT8H,Day 1 Dosing,
20214751,PC,20214751-245,115,C5A,ACT-1014-6470,ANALYTE,1130,ng/mL,1130,1130,ng/mL,,Idorsia Pharmaceuticals Ltd,PLASMA,LC-MS/MS,,1,1,2019-09-12T15:30,1,,8H,8,PT8H,Day 1 Dosing,
20214751,PC,20214751-246,116,C5A,ACT-1014-6470,ANALYTE,620,ng/mL,620,620,ng/mL,,Idorsia Pharmaceuticals Ltd,PLASMA,LC-MS/MS,,1,1,2019-09-12T15:30,1,,8H,8,PT8H,Day 1 Dosing,
20214751,PC,20214751-247,117,C5A,ACT-1014-6470,ANALYTE,2510,ng/mL,2510,2510,ng/mL,,Idorsia Pharmaceuticals Ltd,PLASMA,LC-MS/MS,,1,1,2019-09-12T15:30,1,,8H,8,PT8H,Day 1 Dosing,
20214751,PC,20214751-251,118,C5A,ACT-1014-6470,ANALYTE,2680,ng/mL,2680,2680,ng/mL,,Idorsia Pharmaceuticals Ltd,PLASMA,LC-MS/MS,,1,1,2019-09-12T15:30,1,,8H,8,PT8H,Day 1 Dosing,
20214751,PC,20214751-252,119,C5A,ACT-1014-6470,ANALYTE,453,ng/mL,453,453,ng/mL,,Idorsia Pharmaceuticals Ltd,PLASMA,LC-MS/MS,,1,1,2019-09-12T15:30,1,,8H,8,PT8H,Day 1 Dosing,
20214751,PC,20214751-253,120,C5A,ACT-1014-6470,ANALYTE,541,ng/mL,541,541,ng/mL,,Idorsia Pharmaceuticals Ltd,PLASMA,LC-MS/MS,,1,1,2019-09-12T15:30,1,,8H,8,PT8H,Day 1 Dosing,
20214751,PC,20214751-212,121,C5A,ACT-1014-6470,ANALYTE,BLQ,ng/mL,BLQ,,,BELOW DETECTION LIMIT,Idorsia Pharmaceuticals Ltd,PLASMA,LC-MS/MS,,1,1,2019-09-13T07:30,1,,24H,24,PT24H,Day 1 Dosing,
20214751,PC,20214751-213,122,C5A,ACT-1014-6470,ANALYTE,BLQ,ng/mL,BLQ,,,BELOW DETECTION LIMIT,Idorsia Pharmaceuticals Ltd,PLASMA,LC-MS/MS,,1,1,2019-09-13T07:30,1,,24H,24,PT24H,Day 1 Dosing,
20214751,PC,20214751-214,123,C5A,ACT-1014-6470,ANALYTE,BLQ,ng/mL,BLQ,,,BELOW DETECTION LIMIT,Idorsia Pharmaceuticals Ltd,PLASMA,LC-MS/MS,,1,1,2019-09-13T07:30,1,,24H,24,PT24H,Day 1 Dosing,
20214751,PC,20214751-218,124,C5A,ACT-1014-6470,ANALYTE,BLQ,ng/mL,BLQ,,,BELOW DETECTION LIMIT,Idorsia Pharmaceuticals Ltd,PLASMA,LC-MS/MS,,1,1,2019-09-13T07:30,1,,24H,24,PT24H,Day 1 Dosing,
20214751,PC,20214751-219,125,C5A,ACT-1014-6470,ANALYTE,BLQ,ng/mL,BLQ,,,BELOW DETECTION LIMIT,Idorsia Pharmaceuticals Ltd,PLASMA,LC-MS/MS,,1,1,2019-09-13T07:30,1,,24H,24,PT24H,Day 1 Dosing,
20214751,PC,20214751-220,126,C5A,ACT-1014-6470,ANALYTE,BLQ,ng/mL,BLQ,,,BELOW DETECTION LIMIT,Idorsia Pharmaceuticals Ltd,PLASMA,LC-MS/MS,,1,1,2019-09-13T07:30,1,,24H,24,PT24H,Day 1 Dosing,
20214751,PC,20214751-224,127,C5A,ACT-1014-6470,ANALYTE,16.6,ng/mL,16.6,16.6,ng/mL,,Idorsia Pharmaceuticals Ltd,PLASMA,LC-MS/MS,,1,1,2019-09-13T07:30,1,,24H,24,PT24H,Day 1 Dosing,
20214751,PC,20214751-225,128,C5A,ACT-1014-6470,ANALYTE,9.06,ng/mL,9.06,9.06,ng/mL,,Idorsia Pharmaceuticals Ltd,PLASMA,LC-MS/MS,,1,1,2019-09-13T07:30,1,,24H,24,PT24H,Day 1 Dosing,
20214751,PC,20214751-226,129,C5A,ACT-1014-6470,ANALYTE,5.01,ng/mL,5.01,5.01,ng/mL,,Idorsia Pharmaceuticals Ltd,PLASMA,LC-MS/MS,,1,1,2019-09-13T07:30,1,,24H,24,PT24H,Day 1 Dosing,
20214751,PC,20214751-230,130,C5A,ACT-1014-6470,ANALYTE,5.78,ng/mL,5.78,5.78,ng/mL,,Idorsia Pharmaceuticals Ltd,PLASMA,LC-MS/MS,,1,1,2019-09-13T07:30,1,,24H,24,PT24H,Day 1 Dosing,
20214751,PC,20214751-231,131,C5A,ACT-1014-6470,ANALYTE,23.3,ng/mL,23.3,23.3,ng/mL,,Idorsia Pharmaceuticals Ltd,PLASMA,LC-MS/MS,,1,1,2019-09-13T07:30,1,,24H,24,PT24H,Day 1 Dosing,
20214751,PC,20214751-232,132,C5A,ACT-1014-6470,ANALYTE,24,ng/mL,24,24,ng/mL,,Idorsia Pharmaceuticals Ltd,PLASMA,LC-MS/MS,,1,1,2019-09-13T07:30,1,,24H,24,PT24H,Day 1 Dosing,
20214751,PC,20214751-236,133,C5A,ACT-1014-6470,ANALYTE,31.8,ng/mL,31.8,31.8,ng/mL,,Idorsia Pharmaceuticals Ltd,PLASMA,LC-MS/MS,,1,1,2019-09-13T07:30,1,,24H,24,PT24H,Day 1 Dosing,
20214751,PC,20214751-237,134,C5A,ACT-1014-6470,ANALYTE,78.1,ng/mL,78.1,78.1,ng/mL,,Idorsia Pharmaceuticals Ltd,PLASMA,LC-MS/MS,,1,1,2019-09-13T07:30,1,,24H,24,PT24H,Day 1 Dosing,
20214751,PC,20214751-238,135,C5A,ACT-1014-6470,ANALYTE,16.6,ng/mL,16.6,16.6,ng/mL,,Idorsia Pharmaceuticals Ltd,PLASMA,LC-MS/MS,,1,1,2019-09-13T07:30,1,,24H,24,PT24H,Day 1 Dosing,
20214751,PC,20214751-242,136,C5A,ACT-1014-6470,ANALYTE,14,ng/mL,14,14,ng/mL,,Idorsia Pharmaceuticals Ltd,PLASMA,LC-MS/MS,,1,1,2019-09-13T07:30,1,,24H,24,PT24H,Day 1 Dosing,
20214751,PC,20214751-243,137,C5A,ACT-1014-6470,ANALYTE,41.8,ng/mL,41.8,41.8,ng/mL,,Idorsia Pharmaceuticals Ltd,PLASMA,LC-MS/MS,,1,1,2019-09-13T07:30,1,,24H,24,PT24H,Day 1 Dosing,
20214751,PC,20214751-244,138,C5A,ACT-1014-6470,ANALYTE,156,ng/mL,156,156,ng/mL,,Idorsia Pharmaceuticals Ltd,PLASMA,LC-MS/MS,,1,1,2019-09-13T07:30,1,,24H,24,PT24H,Day 1 Dosing,
20214751,PC,20214751-248,139,C5A,ACT-1014-6470,ANALYTE,12.6,ng/mL,12.6,12.6,ng/mL,,Idorsia Pharmaceuticals Ltd,PLASMA,LC-MS/MS,,1,1,2019-09-13T07:30,1,,24H,24,PT24H,Day 1 Dosing,
20214751,PC,20214751-249,140,C5A,ACT-1014-6470,ANALYTE,16,ng/mL,16,16,ng/mL,,Idorsia Pharmaceuticals Ltd,PLASMA,LC-MS/MS,,1,1,2019-09-13T07:30,1,,24H,24,PT24H,Day 1 Dosing,
20214751,PC,20214751-250,141,C5A,ACT-1014-6470,ANALYTE,169,ng/mL,169,169,ng/mL,,Idorsia Pharmaceuticals Ltd,PLASMA,LC-MS/MS,,1,1,2019-09-13T07:30,1,,24H,24,PT24H,Day 1 Dosing,
20214751,PC,20214751-254,142,C5A,ACT-1014-6470,ANALYTE,36,ng/mL,36,36,ng/mL,,Idorsia Pharmaceuticals Ltd,PLASMA,LC-MS/MS,,1,1,2019-09-13T07:30,1,,24H,24,PT24H,Day 1 Dosing,
20214751,PC,20214751-255,143,C5A,ACT-1014-6470,ANALYTE,27.7,ng/mL,27.7,27.7,ng/mL,,Idorsia Pharmaceuticals Ltd,PLASMA,LC-MS/MS,,1,1,2019-09-13T07:30,1,,24H,24,PT24H,Day 1 Dosing,
20214751,PC,20214751-256,144,C5A,ACT-1014-6470,ANALYTE,23.8,ng/mL,23.8,23.8,ng/mL,,Idorsia Pharmaceuticals Ltd,PLASMA,LC-MS/MS,,1,1,2019-09-13T07:30,1,,24H,24,PT24H,Day 1 Dosing,
20214751,PC,20214751-24,145,C5A,ACT-1014-6470,ANALYTE,BLQ,ng/mL,BLQ,,,BELOW DETECTION LIMIT,Idorsia Pharmaceuticals Ltd,PLASMA,LC-MS/MS,,1,3,2019-09-15T08:30,3,,1H,1,PT1H,Day 1 Dosing,
20214751,PC,20214751-236,146,C5A,ACT-1014-6470,ANALYTE,24.3,ng/mL,24.3,24.3,ng/mL,,Idorsia Pharmaceuticals Ltd,PLASMA,LC-MS/MS,,1,52,2019-11-02T07:30,52,,24H,24,PT24H,Day 1 Dosing,
20214751,PC,20214751-209,147,C5A,ACT-1014-6470,ANALYTE,BLQ,ng/mL,BLQ,,,BELOW DETECTION LIMIT,Idorsia Pharmaceuticals Ltd,PLASMA,LC-MS/MS,,1,91,2019-12-11T08:00,91,,0.5H,0.5,PT0.5H,Day 1 Dosing,
20214751,PC,20214751-210,148,C5A,ACT-1014-6470,ANALYTE,BLQ,ng/mL,BLQ,,,BELOW DETECTION LIMIT,Idorsia Pharmaceuticals Ltd,PLASMA,LC-MS/MS,,1,91,2019-12-11T08:00,91,,0.5H,0.5,PT0.5H,Day 1 Dosing,
20214751,PC,20214751-211,149,C5A,ACT-1014-6470,ANALYTE,BLQ,ng/mL,BLQ,,,BELOW DETECTION LIMIT,Idorsia Pharmaceuticals Ltd,PLASMA,LC-MS/MS,,1,91,2019-12-11T08:00,91,,0.5H,0.5,PT0.5H,Day 1 Dosing,
20214751,PC,20214751-215,150,C5A,ACT-1014-6470,ANALYTE,BLQ,ng/mL,BLQ,,,BELOW DETECTION LIMIT,Idorsia Pharmaceuticals Ltd,PLASMA,LC-MS/MS,,1,91,2019-12-11T08:00,91,,0.5H,0.5,PT0.5H,Day 1 Dosing,
20214751,PC,20214751-216,151,C5A,ACT-1014-6470,ANALYTE,BLQ,ng/mL,BLQ,,,BELOW DETECTION LIMIT,Idorsia Pharmaceuticals Ltd,PLASMA,LC-MS/MS,,1,91,2019-12-11T08:00,91,,0.5H,0.5,PT0.5H,Day 1 Dosing,
20214751,PC,20214751-217,152,C5A,ACT-1014-6470,ANALYTE,BLQ,ng/mL,BLQ,,,BELOW DETECTION LIMIT,Idorsia Pharmaceuticals Ltd,PLASMA,LC-MS/MS,,1,91,2019-12-11T08:00,91,,0.5H,0.5,PT0.5H,Day 1 Dosing,
20214751,PC,20214751-221,153,C5A,ACT-1014-6470,ANALYTE,277,ng/mL,277,277,ng/mL,,Idorsia Pharmaceuticals Ltd,PLASMA,LC-MS/MS,,1,91,2019-12-11T08:00,91,,0.5H,0.5,PT0.5H,Day 1 Dosing,
20214751,PC,20214751-222,154,C5A,ACT-1014-6470,ANALYTE,246,ng/mL,246,246,ng/mL,,Idorsia Pharmaceuticals Ltd,PLASMA,LC-MS/MS,,1,91,2019-12-11T08:00,91,,0.5H,0.5,PT0.5H,Day 1 Dosing,
20214751,PC,20214751-223,155,C5A,ACT-1014-6470,ANALYTE,250,ng/mL,250,250,ng/mL,,Idorsia Pharmaceuticals Ltd,PLASMA,LC-MS/MS,,1,91,2019-12-11T08:00,91,,0.5H,0.5,PT0.5H,Day 1 Dosing,
20214751,PC,20214751-227,156,C5A,ACT-1014-6470,ANALYTE,646,ng/mL,646,646,ng/mL,,Idorsia Pharmaceuticals Ltd,PLASMA,LC-MS/MS,,1,91,2019-12-11T08:00,91,,0.5H,0.5,PT0.5H,Day 1 Dosing,
20214751,PC,20214751-228,157,C5A,ACT-1014-6470,ANALYTE,285,ng/mL,285,285,ng/mL,,Idorsia Pharmaceuticals Ltd,PLASMA,LC-MS/MS,,1,91,2019-12-11T08:00,91,,0.5H,0.5,PT0.5H,Day 1 Dosing,
20214751,PC,20214751-229,158,C5A,ACT-1014-6470,ANALYTE,318,ng/mL,318,318,ng/mL,,Idorsia Pharmaceuticals Ltd,PLASMA,LC-MS/MS,,1,91,2019-12-11T08:00,91,,0.5H,0.5,PT0.5H,Day 1 Dosing,
20214751,PC,20214751-233,159,C5A,ACT-1014-6470,ANALYTE,793,ng/mL,793,793,ng/mL,,Idorsia Pharmaceuticals Ltd,PLASMA,LC-MS/MS,,1,91,2019-12-11T08:00,91,,0.5H,0.5,PT0.5H,Day 1 Dosing,
20214751,PC,20214751-234,160,C5A,ACT-1014-6470,ANALYTE,1460,ng/mL,1460,1460,ng/mL,,Idorsia Pharmaceuticals Ltd,PLASMA,LC-MS/MS,,1,91,2019-12-11T08:00,91,,0.5H,0.5,PT0.5H,Day 1 Dosing,
20214751,PC,20214751-235,161,C5A,ACT-1014-6470,ANALYTE,360,ng/mL,360,360,ng/mL,,Idorsia Pharmaceuticals Ltd,PLASMA,LC-MS/MS,,1,91,2019-12-11T08:00,91,,0.5H,0.5,PT0.5H,Day 1 Dosing,
20214751,PC,20214751-239,162,C5A,ACT-1014-6470,ANALYTE,1550,ng/mL,1550,1550,ng/mL,,Idorsia Pharmaceuticals Ltd,PLASMA,LC-MS/MS,,1,91,2019-12-11T08:00,91,,0.5H,0.5,PT0.5H,Day 1 Dosing,
20214751,PC,20214751-240,163,C5A,ACT-1014-6470,ANALYTE,1380,ng/mL,1380,1380,ng/mL,,Idorsia Pharmaceuticals Ltd,PLASMA,LC-MS/MS,,1,91,2019-12-11T08:00,91,,0.5H,0.5,PT0.5H,Day 1 Dosing,
20214751,PC,20214751-241,164,C5A,ACT-1014-6470,ANALYTE,1320,ng/mL,1320,1320,ng/mL,,Idorsia Pharmaceuticals Ltd,PLASMA,LC-MS/MS,,1,91,2019-12-11T08:00,91,,0.5H,0.5,PT0.5H,Day 1 Dosing,
20214751,PC,20214751-245,165,C5A,ACT-1014-6470,ANALYTE,2330,ng/mL,2330,2330,ng/mL,,Idorsia Pharmaceuticals Ltd,PLASMA,LC-MS/MS,,1,91,2019-12-11T08:00,91,,0.5H,0.5,PT0.5H,Day 1 Dosing,
20214751,PC,20214751-246,166,C5A,ACT-1014-6470,ANALYTE,1600,ng/mL,1600,1600,ng/mL,,Idorsia Pharmaceuticals Ltd,PLASMA,LC-MS/MS,,1,91,2019-12-11T08:00,91,,0.5H,0.5,PT0.5H,Day 1 Dosing,
20214751,PC,20214751-247,167,C5A,ACT-1014-6470,ANALYTE,1550,ng/mL,1550,1550,ng/mL,,Idorsia Pharmaceuticals Ltd,PLASMA,LC-MS/MS,,1,91,2019-12-11T08:00,91,,0.5H,0.5,PT0.5H,Day 1 Dosing,
20214751,PC,20214751-251,168,C5A,ACT-1014-6470,ANALYTE,4890,ng/mL,4890,4890,ng/mL,,Idorsia Pharmaceuticals Ltd,PLASMA,LC-MS/MS,,1,91,2019-12-11T08:00,91,,0.5H,0.5,PT0.5H,Day 1 Dosing,
20214751,PC,20214751-252,169,C5A,ACT-1014-6470,ANALYTE,2770,ng/mL,2770,2770,ng/mL,,Idorsia Pharmaceuticals Ltd,PLASMA,LC-MS/MS,,1,91,2019-12-11T08:00,91,,0.5H,0.5,PT0.5H,Day 1 Dosing,
20214751,PC,20214751-253,170,C5A,ACT-1014-6470,ANALYTE,4420,ng/mL,4420,4420,ng/mL,,Idorsia Pharmaceuticals Ltd,PLASMA,LC-MS/MS,,1,91,2019-12-11T08:00,91,,0.5H,0.5,PT0.5H,Day 1 Dosing,
20214751,PC,20214751-212,171,C5A,ACT-1014-6470,ANALYTE,BLQ,ng/mL,BLQ,,,BELOW DETECTION LIMIT,Idorsia Pharmaceuticals Ltd,PLASMA,LC-MS/MS,,1,91,2019-12-11T08:30,91,,1H,1,PT1H,Day 1 Dosing,
20214751,PC,20214751-213,172,C5A,ACT-1014-6470,ANALYTE,BLQ,ng/mL,BLQ,,,BELOW DETECTION LIMIT,Idorsia Pharmaceuticals Ltd,PLASMA,LC-MS/MS,,1,91,2019-12-11T08:30,91,,1H,1,PT1H,Day 1 Dosing,
20214751,PC,20214751-214,173,C5A,ACT-1014-6470,ANALYTE,BLQ,ng/mL,BLQ,,,BELOW DETECTION LIMIT,Idorsia Pharmaceuticals Ltd,PLASMA,LC-MS/MS,,1,91,2019-12-11T08:30,91,,1H,1,PT1H,Day 1 Dosing,
20214751,PC,20214751-218,174,C5A,ACT-1014-6470,ANALYTE,BLQ,ng/mL,BLQ,,,BELOW DETECTION LIMIT,Idorsia Pharmaceuticals Ltd,PLASMA,LC-MS/MS,,1,91,2019-12-11T08:30,91,,1H,1,PT1H,Day 1 Dosing,
20214751,PC,20214751-219,175,C5A,ACT-1014-6470,ANALYTE,BLQ,ng/mL,BLQ,,,BELOW DETECTION LIMIT,Idorsia Pharmaceuticals Ltd,PLASMA,LC-MS/MS,,1,91,2019-12-11T08:30,91,,1H,1,PT1H,Day 1 Dosing,
20214751,PC,20214751-220,176,C5A,ACT-1014-6470,ANALYTE,BLQ,ng/mL,BLQ,,,BELOW DETECTION LIMIT,Idorsia Pharmaceuticals Ltd,PLASMA,LC-MS/MS,,1,91,2019-12-11T08:30,91,,1H,1,PT1H,Day 1 Dosing,
20214751,PC,20214751-224,177,C5A,ACT-1014-6470,ANALYTE,782,ng/mL,782,782,ng/mL,,Idorsia Pharmaceuticals Ltd,PLASMA,LC-MS/MS,,1,91,2019-12-11T08:30,91,,1H,1,PT1H,Day 1 Dosing,
20214751,PC,20214751-225,178,C5A,ACT-1014-6470,ANALYTE,635,ng/mL,635,635,ng/mL,,Idorsia Pharmaceuticals Ltd,PLASMA,LC-MS/MS,,1,91,2019-12-11T08:30,91,,1H,1,PT1H,Day 1 Dosing,
20214751,PC,20214751-226,179,C5A,ACT-1014-6470,ANALYTE,536,ng/mL,536,536,ng/mL,,Idorsia Pharmaceuticals Ltd,PLASMA,LC-MS/MS,,1,91,2019-12-11T08:30,91,,1H,1,PT1H,Day 1 Dosing,
20214751,PC,20214751-230,180,C5A,ACT-1014-6470,ANALYTE,599,ng/mL,599,599,ng/mL,,Idorsia Pharmaceuticals Ltd,PLASMA,LC-MS/MS,,1,91,2019-12-11T08:30,91,,1H,1,PT1H,Day 1 Dosing,
20214751,PC,20214751-231,181,C5A,ACT-1014-6470,ANALYTE,834,ng/mL,834,834,ng/mL,,Idorsia Pharmaceuticals Ltd,PLASMA,LC-MS/MS,,1,91,2019-12-11T08:30,91,,1H,1,PT1H,Day 1 Dosing,
20214751,PC,20214751-232,182,C5A,ACT-1014-6470,ANALYTE,817,ng/mL,817,817,ng/mL,,Idorsia Pharmaceuticals Ltd,PLASMA,LC-MS/MS,,1,91,2019-12-11T08:30,91,,1H,1,PT1H,Day 1 Dosing,
20214751,PC,20214751-237,183,C5A,ACT-1014-6470,ANALYTE,5020,ng/mL,5020,5020,ng/mL,,Idorsia Pharmaceuticals Ltd,PLASMA,LC-MS/MS,,1,91,2019-12-11T08:30,91,,1H,1,PT1H,Day 1 Dosing,
20214751,PC,20214751-238,184,C5A,ACT-1014-6470,ANALYTE,1210,ng/mL,1210,1210,ng/mL,,Idorsia Pharmaceuticals Ltd,PLASMA,LC-MS/MS,,1,91,2019-12-11T08:30,91,,1H,1,PT1H,Day 1 Dosing,
20214751,PC,20214751-242,185,C5A,ACT-1014-6470,ANALYTE,1520,ng/mL,1520,1520,ng/mL,,Idorsia Pharmaceuticals Ltd,PLASMA,LC-MS/MS,,1,91,2019-12-11T08:30,91,,1H,1,PT1H,Day 1 Dosing,
20214751,PC,20214751-243,186,C5A,ACT-1014-6470,ANALYTE,2140,ng/mL,2140,2140,ng/mL,,Idorsia Pharmaceuticals Ltd,PLASMA,LC-MS/MS,,1,91,2019-12-11T08:30,91,,1H,1,PT1H,Day 1 Dosing,
20214751,PC,20214751-244,187,C5A,ACT-1014-6470,ANALYTE,3180,ng/mL,3180,3180,ng/mL,,Idorsia Pharmaceuticals Ltd,PLASMA,LC-MS/MS,,1,91,2019-12-11T08:30,91,,1H,1,PT1H,Day 1 Dosing,
20214751,PC,20214751-248,188,C5A,ACT-1014-6470,ANALYTE,3180,ng/mL,3180,3180,ng/mL,,Idorsia Pharmaceuticals Ltd,PLASMA,LC-MS/MS,,1,91,2019-12-11T08:30,91,,1H,1,PT1H,Day 1 Dosing,
20214751,PC,20214751-249,189,C5A,ACT-1014-6470,ANALYTE,2550,ng/mL,2550,2550,ng/mL,,Idorsia Pharmaceuticals Ltd,PLASMA,LC-MS/MS,,1,91,2019-12-11T08:30,91,,1H,1,PT1H,Day 1 Dosing,
20214751,PC,20214751-250,190,C5A,ACT-1014-6470,ANALYTE,5840,ng/mL,5840,5840,ng/mL,,Idorsia Pharmaceuticals Ltd,PLASMA,LC-MS/MS,,1,91,2019-12-11T08:30,91,,1H,1,PT1H,Day 1 Dosing,
20214751,PC,20214751-254,191,C5A,ACT-1014-6470,ANALYTE,2990,ng/mL,2990,2990,ng/mL,,Idorsia Pharmaceuticals Ltd,PLASMA,LC-MS/MS,,1,91,2019-12-11T08:30,91,,1H,1,PT1H,Day 1 Dosing,
20214751,PC,20214751-255,192,C5A,ACT-1014-6470,ANALYTE,1350,ng/mL,1350,1350,ng/mL,,Idorsia Pharmaceuticals Ltd,PLASMA,LC-MS/MS,,1,91,2019-12-11T08:30,91,,1H,1,PT1H,Day 1 Dosing,
20214751,PC,20214751-256,193,C5A,ACT-1014-6470,ANALYTE,4170,ng/mL,4170,4170,ng/mL,,Idorsia Pharmaceuticals Ltd,PLASMA,LC-MS/MS,,1,91,2019-12-11T08:30,91,,1H,1,PT1H,Day 1 Dosing,
20214751,PC,20214751-209,194,C5A,ACT-1014-6470,ANALYTE,BLQ,ng/mL,BLQ,,,BELOW DETECTION LIMIT,Idorsia Pharmaceuticals Ltd,PLASMA,LC-MS/MS,,1,91,2019-12-11T09:30,91,,2H,2,PT2H,Day 1 Dosing,
20214751,PC,20214751-210,195,C5A,ACT-1014-6470,ANALYTE,BLQ,ng/mL,BLQ,,,BELOW DETECTION LIMIT,Idorsia Pharmaceuticals Ltd,PLASMA,LC-MS/MS,,1,91,2019-12-11T09:30,91,,2H,2,PT2H,Day 1 Dosing,
20214751,PC,20214751-211,196,C5A,ACT-1014-6470,ANALYTE,BLQ,ng/mL,BLQ,,,BELOW DETECTION LIMIT,Idorsia Pharmaceuticals Ltd,PLASMA,LC-MS/MS,,1,91,2019-12-11T09:30,91,,2H,2,PT2H,Day 1 Dosing,
20214751,PC,20214751-216,197,C5A,ACT-1014-6470,ANALYTE,BLQ,ng/mL,BLQ,,,BELOW DETECTION LIMIT,Idorsia Pharmaceuticals Ltd,PLASMA,LC-MS/MS,,1,91,2019-12-11T09:30,91,,2H,2,PT2H,Day 1 Dosing,
20214751,PC,20214751-217,198,C5A,ACT-1014-6470,ANALYTE,BLQ,ng/mL,BLQ,,,BELOW DETECTION LIMIT,Idorsia Pharmaceuticals Ltd,PLASMA,LC-MS/MS,,1,91,2019-12-11T09:30,91,,2H,2,PT2H,Day 1 Dosing,
20214751,PC,20214751-221,199,C5A,ACT-1014-6470,ANALYTE,827,ng/mL,827,827,ng/mL,,Idorsia Pharmaceuticals Ltd,PLASMA,LC-MS/MS,,1,91,2019-12-11T09:30,91,,2H,2,PT2H,Day 1 Dosing,
20214751,PC,20214751-222,200,C5A,ACT-1014-6470,ANALYTE,818,ng/mL,818,818,ng/mL,,Idorsia Pharmaceuticals Ltd,PLASMA,LC-MS/MS,,1,91,2019-12-11T09:30,91,,2H,2,PT2H,Day 1 Dosing,
20214751,PC,20214751-223,201,C5A,ACT-1014-6470,ANALYTE,663,ng/mL,663,663,ng/mL,,Idorsia Pharmaceuticals Ltd,PLASMA,LC-MS/MS,,1,91,2019-12-11T09:30,91,,2H,2,PT2H,Day 1 Dosing,
20214751,PC,20214751-227,202,C5A,ACT-1014-6470,ANALYTE,1410,ng/mL,1410,1410,ng/mL,,Idorsia Pharmaceuticals Ltd,PLASMA,LC-MS/MS,,1,91,2019-12-11T09:30,91,,2H,2,PT2H,Day 1 Dosing,
20214751,PC,20214751-228,203,C5A,ACT-1014-6470,ANALYTE,616,ng/mL,616,616,ng/mL,,Idorsia Pharmaceuticals Ltd,PLASMA,LC-MS/MS,,1,91,2019-12-11T09:30,91,,2H,2,PT2H,Day 1 Dosing,
20214751,PC,20214751-229,204,C5A,ACT-1014-6470,ANALYTE,293,ng/mL,293,293,ng/mL,,Idorsia Pharmaceuticals Ltd,PLASMA,LC-MS/MS,,1,91,2019-12-11T09:30,91,,2H,2,PT2H,Day 1 Dosing,
20214751,PC,20214751-233,205,C5A,ACT-1014-6470,ANALYTE,2530,ng/mL,2530,2530,ng/mL,,Idorsia Pharmaceuticals Ltd,PLASMA,LC-MS/MS,,1,91,2019-12-11T09:30,91,,2H,2,PT2H,Day 1 Dosing,
20214751,PC,20214751-234,206,C5A,ACT-1014-6470,ANALYTE,5520,ng/mL,5520,5520,ng/mL,,Idorsia Pharmaceuticals Ltd,PLASMA,LC-MS/MS,,1,91,2019-12-11T09:30,91,,2H,2,PT2H,Day 1 Dosing,
20214751,PC,20214751-235,207,C5A,ACT-1014-6470,ANALYTE,1080,ng/mL,1080,1080,ng/mL,,Idorsia Pharmaceuticals Ltd,PLASMA,LC-MS/MS,,1,91,2019-12-11T09:30,91,,2H,2,PT2H,Day 1 Dosing,
20214751,PC,20214751-239,208,C5A,ACT-1014-6470,ANALYTE,4060,ng/mL,4060,4060,ng/mL,,Idorsia Pharmaceuticals Ltd,PLASMA,LC-MS/MS,,1,91,2019-12-11T09:30,91,,2H,2,PT2H,Day 1 Dosing,
20214751,PC,20214751-240,209,C5A,ACT-1014-6470,ANALYTE,3930,ng/mL,3930,3930,ng/mL,,Idorsia Pharmaceuticals Ltd,PLASMA,LC-MS/MS,,1,91,2019-12-11T09:30,91,,2H,2,PT2H,Day 1 Dosing,
20214751,PC,20214751-241,210,C5A,ACT-1014-6470,ANALYTE,2710,ng/mL,2710,2710,ng/mL,,Idorsia Pharmaceuticals Ltd,PLASMA,LC-MS/MS,,1,91,2019-12-11T09:30,91,,2H,2,PT2H,Day 1 Dosing,
20214751,PC,20214751-245,211,C5A,ACT-1014-6470,ANALYTE,2350,ng/mL,2350,2350,ng/mL,,Idorsia Pharmaceuticals Ltd,PLASMA,LC-MS/MS,,1,91,2019-12-11T09:30,91,,2H,2,PT2H,Day 1 Dosing,
20214751,PC,20214751-246,212,C5A,ACT-1014-6470,ANALYTE,1770,ng/mL,1770,1770,ng/mL,,Idorsia Pharmaceuticals Ltd,PLASMA,LC-MS/MS,,1,91,2019-12-11T09:30,91,,2H,2,PT2H,Day 1 Dosing,
20214751,PC,20214751-247,213,C5A,ACT-1014-6470,ANALYTE,2600,ng/mL,2600,2600,ng/mL,,Idorsia Pharmaceuticals Ltd,PLASMA,LC-MS/MS,,1,91,2019-12-11T09:30,91,,2H,2,PT2H,Day 1 Dosing,
20214751,PC,20214751-251,214,C5A,ACT-1014-6470,ANALYTE,8900,ng/mL,8900,8900,ng/mL,,Idorsia Pharmaceuticals Ltd,PLASMA,LC-MS/MS,,1,91,2019-12-11T09:30,91,,2H,2,PT2H,Day 1 Dosing,
20214751,PC,20214751-252,215,C5A,ACT-1014-6470,ANALYTE,2020,ng/mL,2020,2020,ng/mL,,Idorsia Pharmaceuticals Ltd,PLASMA,LC-MS/MS,,1,91,2019-12-11T09:30,91,,2H,2,PT2H,Day 1 Dosing,
20214751,PC,20214751-253,216,C5A,ACT-1014-6470,ANALYTE,9220,ng/mL,9220,9220,ng/mL,,Idorsia Pharmaceuticals Ltd,PLASMA,LC-MS/MS,,1,91,2019-12-11T09:30,91,,2H,2,PT2H,Day 1 Dosing,
20214751,PC,20214751-212,217,C5A,ACT-1014-6470,ANALYTE,BLQ,ng/mL,BLQ,,,BELOW DETECTION LIMIT,Idorsia Pharmaceuticals Ltd,PLASMA,LC-MS/MS,,1,91,2019-12-11T11:30,91,,4H,4,PT4H,Day 1 Dosing,
20214751,PC,20214751-213,218,C5A,ACT-1014-6470,ANALYTE,,,,,,NOT DONE,  Idorsia Pharmaceuticals Ltd,PLASMA,LC-MS/MS,,1,91,2019-12-11T11:30,91,,4H,4,PT4H,Day 1 Dosing,
20214751,PC,20214751-214,219,C5A,ACT-1014-6470,ANALYTE,BLQ,ng/mL,BLQ,,,BELOW DETECTION LIMIT,Idorsia Pharmaceuticals Ltd,PLASMA,LC-MS/MS,,1,91,2019-12-11T11:30,91,,4H,4,PT4H,Day 1 Dosing,
20214751,PC,20214751-218,220,C5A,ACT-1014-6470,ANALYTE,BLQ,ng/mL,BLQ,,,BELOW DETECTION LIMIT,Idorsia Pharmaceuticals Ltd,PLASMA,LC-MS/MS,,1,91,2019-12-11T11:30,91,,4H,4,PT4H,Day 1 Dosing,
20214751,PC,20214751-219,221,C5A,ACT-1014-6470,ANALYTE,BLQ,ng/mL,BLQ,,,BELOW DETECTION LIMIT,Idorsia Pharmaceuticals Ltd,PLASMA,LC-MS/MS,,1,91,2019-12-11T11:30,91,,4H,4,PT4H,Day 1 Dosing,
20214751,PC,20214751-220,222,C5A,ACT-1014-6470,ANALYTE,BLQ,ng/mL,BLQ,,,BELOW DETECTION LIMIT,Idorsia Pharmaceuticals Ltd,PLASMA,LC-MS/MS,,1,91,2019-12-11T11:30,91,,4H,4,PT4H,Day 1 Dosing,
20214751,PC,20214751-224,223,C5A,ACT-1014-6470,ANALYTE,600,ng/mL,600,600,ng/mL,,Idorsia Pharmaceuticals Ltd,PLASMA,LC-MS/MS,,1,91,2019-12-11T11:30,91,,4H,4,PT4H,Day 1 Dosing,
20214751,PC,20214751-225,224,C5A,ACT-1014-6470,ANALYTE,508,ng/mL,508,508,ng/mL,,Idorsia Pharmaceuticals Ltd,PLASMA,LC-MS/MS,,1,91,2019-12-11T11:30,91,,4H,4,PT4H,Day 1 Dosing,
20214751,PC,20214751-226,225,C5A,ACT-1014-6470,ANALYTE,252,ng/mL,252,252,ng/mL,,Idorsia Pharmaceuticals Ltd,PLASMA,LC-MS/MS,,1,91,2019-12-11T11:30,91,,4H,4,PT4H,Day 1 Dosing,
20214751,PC,20214751-230,226,C5A,ACT-1014-6470,ANALYTE,245,ng/mL,245,245,ng/mL,,Idorsia Pharmaceuticals Ltd,PLASMA,LC-MS/MS,,1,91,2019-12-11T11:30,91,,4H,4,PT4H,Day 1 Dosing,
20214751,PC,20214751-231,227,C5A,ACT-1014-6470,ANALYTE,238,ng/mL,238,238,ng/mL,,Idorsia Pharmaceuticals Ltd,PLASMA,LC-MS/MS,,1,91,2019-12-11T11:30,91,,4H,4,PT4H,Day 1 Dosing,
20214751,PC,20214751-232,228,C5A,ACT-1014-6470,ANALYTE,524,ng/mL,524,524,ng/mL,,Idorsia Pharmaceuticals Ltd,PLASMA,LC-MS/MS,,1,91,2019-12-11T11:30,91,,4H,4,PT4H,Day 1 Dosing,
20214751,PC,20214751-237,229,C5A,ACT-1014-6470,ANALYTE,6120,ng/mL,6120,6120,ng/mL,,Idorsia Pharmaceuticals Ltd,PLASMA,LC-MS/MS,,1,91,2019-12-11T11:30,91,,4H,4,PT4H,Day 1 Dosing,
20214751,PC,20214751-238,230,C5A,ACT-1014-6470,ANALYTE,809,ng/mL,809,809,ng/mL,,Idorsia Pharmaceuticals Ltd,PLASMA,LC-MS/MS,,1,91,2019-12-11T11:30,91,,4H,4,PT4H,Day 1 Dosing,
20214751,PC,20214751-242,231,C5A,ACT-1014-6470,ANALYTE,1360,ng/mL,1360,1360,ng/mL,,Idorsia Pharmaceuticals Ltd,PLASMA,LC-MS/MS,,1,91,2019-12-11T11:30,91,,4H,4,PT4H,Day 1 Dosing,
20214751,PC,20214751-243,232,C5A,ACT-1014-6470,ANALYTE,2210,ng/mL,2210,2210,ng/mL,,Idorsia Pharmaceuticals Ltd,PLASMA,LC-MS/MS,,1,91,2019-12-11T11:30,91,,4H,4,PT4H,Day 1 Dosing,
20214751,PC,20214751-244,233,C5A,ACT-1014-6470,ANALYTE,3900,ng/mL,3900,3900,ng/mL,,Idorsia Pharmaceuticals Ltd,PLASMA,LC-MS/MS,,1,91,2019-12-11T11:30,91,,4H,4,PT4H,Day 1 Dosing,
20214751,PC,20214751-248,234,C5A,ACT-1014-6470,ANALYTE,550,ng/mL,550,550,ng/mL,,Idorsia Pharmaceuticals Ltd,PLASMA,LC-MS/MS,,1,91,2019-12-11T11:30,91,,4H,4,PT4H,Day 1 Dosing,
20214751,PC,20214751-249,235,C5A,ACT-1014-6470,ANALYTE,517,ng/mL,517,517,ng/mL,,Idorsia Pharmaceuticals Ltd,PLASMA,LC-MS/MS,,1,91,2019-12-11T11:30,91,,4H,4,PT4H,Day 1 Dosing,
20214751,PC,20214751-250,236,C5A,ACT-1014-6470,ANALYTE,4820,ng/mL,4820,4820,ng/mL,,Idorsia Pharmaceuticals Ltd,PLASMA,LC-MS/MS,,1,91,2019-12-11T11:30,91,,4H,4,PT4H,Day 1 Dosing,
20214751,PC,20214751-254,237,C5A,ACT-1014-6470,ANALYTE,1370,ng/mL,1370,1370,ng/mL,,Idorsia Pharmaceuticals Ltd,PLASMA,LC-MS/MS,,1,91,2019-12-11T11:30,91,,4H,4,PT4H,Day 1 Dosing,
20214751,PC,20214751-255,238,C5A,ACT-1014-6470,ANALYTE,946,ng/mL,946,946,ng/mL,,Idorsia Pharmaceuticals Ltd,PLASMA,LC-MS/MS,,1,91,2019-12-11T11:30,91,,4H,4,PT4H,Day 1 Dosing,
20214751,PC,20214751-256,239,C5A,ACT-1014-6470,ANALYTE,950,ng/mL,950,950,ng/mL,,Idorsia Pharmaceuticals Ltd,PLASMA,LC-MS/MS,,1,91,2019-12-11T11:30,91,,4H,4,PT4H,Day 1 Dosing,
20214751,PC,20214751-209,240,C5A,ACT-1014-6470,ANALYTE,BLQ,ng/mL,BLQ,,,BELOW DETECTION LIMIT,Idorsia Pharmaceuticals Ltd,PLASMA,LC-MS/MS,,1,91,2019-12-11T15:30,91,,8H,8,PT8H,Day 1 Dosing,
20214751,PC,20214751-210,241,C5A,ACT-1014-6470,ANALYTE,BLQ,ng/mL,BLQ,,,BELOW DETECTION LIMIT,Idorsia Pharmaceuticals Ltd,PLASMA,LC-MS/MS,,1,91,2019-12-11T15:30,91,,8H,8,PT8H,Day 1 Dosing,
20214751,PC,20214751-211,242,C5A,ACT-1014-6470,ANALYTE,BLQ,ng/mL,BLQ,,,BELOW DETECTION LIMIT,Idorsia Pharmaceuticals Ltd,PLASMA,LC-MS/MS,,1,91,2019-12-11T15:30,91,,8H,8,PT8H,Day 1 Dosing,
20214751,PC,20214751-215,243,C5A,ACT-1014-6470,ANALYTE,BLQ,ng/mL,BLQ,,,BELOW DETECTION LIMIT,Idorsia Pharmaceuticals Ltd,PLASMA,LC-MS/MS,,1,91,2019-12-11T15:30,91,,8H,8,PT8H,Day 1 Dosing,
20214751,PC,20214751-216,244,C5A,ACT-1014-6470,ANALYTE,BLQ,ng/mL,BLQ,,,BELOW DETECTION LIMIT,Idorsia Pharmaceuticals Ltd,PLASMA,LC-MS/MS,,1,91,2019-12-11T15:30,91,,8H,8,PT8H,Day 1 Dosing,
20214751,PC,20214751-217,245,C5A,ACT-1014-6470,ANALYTE,BLQ,ng/mL,BLQ,,,BELOW DETECTION LIMIT,Idorsia Pharmaceuticals Ltd,PLASMA,LC-MS/MS,,1,91,2019-12-11T15:30,91,,8H,8,PT8H,Day 1 Dosing,
20214751,PC,20214751-221,246,C5A,ACT-1014-6470,ANALYTE,148,ng/mL,148,148,ng/mL,,Idorsia Pharmaceuticals Ltd,PLASMA,LC-MS/MS,,1,91,2019-12-11T15:30,91,,8H,8,PT8H,Day 1 Dosing,
20214751,PC,20214751-222,247,C5A,ACT-1014-6470,ANALYTE,195,ng/mL,195,195,ng/mL,,Idorsia Pharmaceuticals Ltd,PLASMA,LC-MS/MS,,1,91,2019-12-11T15:30,91,,8H,8,PT8H,Day 1 Dosing,
20214751,PC,20214751-223,248,C5A,ACT-1014-6470,ANALYTE,211,ng/mL,211,211,ng/mL,,Idorsia Pharmaceuticals Ltd,PLASMA,LC-MS/MS,,1,91,2019-12-11T15:30,91,,8H,8,PT8H,Day 1 Dosing,
20214751,PC,20214751-227,249,C5A,ACT-1014-6470,ANALYTE,643,ng/mL,643,643,ng/mL,,Idorsia Pharmaceuticals Ltd,PLASMA,LC-MS/MS,,1,91,2019-12-11T15:30,91,,8H,8,PT8H,Day 1 Dosing,
20214751,PC,20214751-228,250,C5A,ACT-1014-6470,ANALYTE,55.4,ng/mL,55.4,55.4,ng/mL,,Idorsia Pharmaceuticals Ltd,PLASMA,LC-MS/MS,,1,91,2019-12-11T15:30,91,,8H,8,PT8H,Day 1 Dosing,
20214751,PC,20214751-229,251,C5A,ACT-1014-6470,ANALYTE,52,ng/mL,52,52,ng/mL,,Idorsia Pharmaceuticals Ltd,PLASMA,LC-MS/MS,,1,91,2019-12-11T15:30,91,,8H,8,PT8H,Day 1 Dosing,
20214751,PC,20214751-233,252,C5A,ACT-1014-6470,ANALYTE,487,ng/mL,487,487,ng/mL,,Idorsia Pharmaceuticals Ltd,PLASMA,LC-MS/MS,,1,91,2019-12-11T15:30,91,,8H,8,PT8H,Day 1 Dosing,
20214751,PC,20214751-234,253,C5A,ACT-1014-6470,ANALYTE,1190,ng/mL,1190,1190,ng/mL,,Idorsia Pharmaceuticals Ltd,PLASMA,LC-MS/MS,,1,91,2019-12-11T15:30,91,,8H,8,PT8H,Day 1 Dosing,
20214751,PC,20214751-235,254,C5A,ACT-1014-6470,ANALYTE,439,ng/mL,439,439,ng/mL,,Idorsia Pharmaceuticals Ltd,PLASMA,LC-MS/MS,,1,91,2019-12-11T15:30,91,,8H,8,PT8H,Day 1 Dosing,
20214751,PC,20214751-239,255,C5A,ACT-1014-6470,ANALYTE,1700,ng/mL,1700,1700,ng/mL,,Idorsia Pharmaceuticals Ltd,PLASMA,LC-MS/MS,,1,91,2019-12-11T15:30,91,,8H,8,PT8H,Day 1 Dosing,
20214751,PC,20214751-240,256,C5A,ACT-1014-6470,ANALYTE,1890,ng/mL,1890,1890,ng/mL,,Idorsia Pharmaceuticals Ltd,PLASMA,LC-MS/MS,,1,91,2019-12-11T15:30,91,,8H,8,PT8H,Day 1 Dosing,
20214751,PC,20214751-241,257,C5A,ACT-1014-6470,ANALYTE,1800,ng/mL,1800,1800,ng/mL,,Idorsia Pharmaceuticals Ltd,PLASMA,LC-MS/MS,,1,91,2019-12-11T15:30,91,,8H,8,PT8H,Day 1 Dosing,
20214751,PC,20214751-245,258,C5A,ACT-1014-6470,ANALYTE,305,ng/mL,305,305,ng/mL,,Idorsia Pharmaceuticals Ltd,PLASMA,LC-MS/MS,,1,91,2019-12-11T15:30,91,,8H,8,PT8H,Day 1 Dosing,
20214751,PC,20214751-246,259,C5A,ACT-1014-6470,ANALYTE,392,ng/mL,392,392,ng/mL,,Idorsia Pharmaceuticals Ltd,PLASMA,LC-MS/MS,,1,91,2019-12-11T15:30,91,,8H,8,PT8H,Day 1 Dosing,
20214751,PC,20214751-247,260,C5A,ACT-1014-6470,ANALYTE,925,ng/mL,925,925,ng/mL,,Idorsia Pharmaceuticals Ltd,PLASMA,LC-MS/MS,,1,91,2019-12-11T15:30,91,,8H,8,PT8H,Day 1 Dosing,
20214751,PC,20214751-251,261,C5A,ACT-1014-6470,ANALYTE,4840,ng/mL,4840,4840,ng/mL,,Idorsia Pharmaceuticals Ltd,PLASMA,LC-MS/MS,,1,91,2019-12-11T15:30,91,,8H,8,PT8H,Day 1 Dosing,
20214751,PC,20214751-252,262,C5A,ACT-1014-6470,ANALYTE,411,ng/mL,411,411,ng/mL,,Idorsia Pharmaceuticals Ltd,PLASMA,LC-MS/MS,,1,91,2019-12-11T15:30,91,,8H,8,PT8H,Day 1 Dosing,
20214751,PC,20214751-253,263,C5A,ACT-1014-6470,ANALYTE,3270,ng/mL,3270,3270,ng/mL,,Idorsia Pharmaceuticals Ltd,PLASMA,LC-MS/MS,,1,91,2019-12-11T15:30,91,,8H,8,PT8H,Day 1 Dosing,
20214751,PC,20214751-212,264,C5A,ACT-1014-6470,ANALYTE,BLQ,ng/mL,BLQ,,,BELOW DETECTION LIMIT,Idorsia Pharmaceuticals Ltd,PLASMA,LC-MS/MS,,1,91,2019-12-12T07:30,91,,24H,24,PT24H,Day 1 Dosing,
20214751,PC,20214751-213,265,C5A,ACT-1014-6470,ANALYTE,BLQ,ng/mL,BLQ,,,BELOW DETECTION LIMIT,Idorsia Pharmaceuticals Ltd,PLASMA,LC-MS/MS,,1,91,2019-12-12T07:30,91,,24H,24,PT24H,Day 1 Dosing,
20214751,PC,20214751-214,266,C5A,ACT-1014-6470,ANALYTE,BLQ,ng/mL,BLQ,,,BELOW DETECTION LIMIT,Idorsia Pharmaceuticals Ltd,PLASMA,LC-MS/MS,,1,91,2019-12-12T07:30,91,,24H,24,PT24H,Day 1 Dosing,
20214751,PC,20214751-218,267,C5A,ACT-1014-6470,ANALYTE,BLQ,ng/mL,BLQ,,,BELOW DETECTION LIMIT,Idorsia Pharmaceuticals Ltd,PLASMA,LC-MS/MS,,1,91,2019-12-12T07:30,91,,24H,24,PT24H,Day 1 Dosing,
20214751,PC,20214751-219,268,C5A,ACT-1014-6470,ANALYTE,BLQ,ng/mL,BLQ,,,BELOW DETECTION LIMIT,Idorsia Pharmaceuticals Ltd,PLASMA,LC-MS/MS,,1,91,2019-12-12T07:30,91,,24H,24,PT24H,Day 1 Dosing,
20214751,PC,20214751-220,269,C5A,ACT-1014-6470,ANALYTE,BLQ,ng/mL,BLQ,,,BELOW DETECTION LIMIT,Idorsia Pharmaceuticals Ltd,PLASMA,LC-MS/MS,,1,91,2019-12-12T07:30,91,,24H,24,PT24H,Day 1 Dosing,
20214751,PC,20214751-224,270,C5A,ACT-1014-6470,ANALYTE,54.4,ng/mL,54.4,54.4,ng/mL,,Idorsia Pharmaceuticals Ltd,PLASMA,LC-MS/MS,,1,91,2019-12-12T07:30,91,,24H,24,PT24H,Day 1 Dosing,
20214751,PC,20214751-225,271,C5A,ACT-1014-6470,ANALYTE,19.2,ng/mL,19.2,19.2,ng/mL,,Idorsia Pharmaceuticals Ltd,PLASMA,LC-MS/MS,,1,91,2019-12-12T07:30,91,,24H,24,PT24H,Day 1 Dosing,
20214751,PC,20214751-226,272,C5A,ACT-1014-6470,ANALYTE,13.2,ng/mL,13.2,13.2,ng/mL,,Idorsia Pharmaceuticals Ltd,PLASMA,LC-MS/MS,,1,91,2019-12-12T07:30,91,,24H,24,PT24H,Day 1 Dosing,
20214751,PC,20214751-230,273,C5A,ACT-1014-6470,ANALYTE,16.5,ng/mL,16.5,16.5,ng/mL,,Idorsia Pharmaceuticals Ltd,PLASMA,LC-MS/MS,,1,91,2019-12-12T07:30,91,,24H,24,PT24H,Day 1 Dosing,
20214751,PC,20214751-231,274,C5A,ACT-1014-6470,ANALYTE,17.6,ng/mL,17.6,17.6,ng/mL,,Idorsia Pharmaceuticals Ltd,PLASMA,LC-MS/MS,,1,91,2019-12-12T07:30,91,,24H,24,PT24H,Day 1 Dosing,
20214751,PC,20214751-232,275,C5A,ACT-1014-6470,ANALYTE,52.2,ng/mL,52.2,52.2,ng/mL,,Idorsia Pharmaceuticals Ltd,PLASMA,LC-MS/MS,,1,91,2019-12-12T07:30,91,,24H,24,PT24H,Day 1 Dosing,
20214751,PC,20214751-237,276,C5A,ACT-1014-6470,ANALYTE,491,ng/mL,491,491,ng/mL,,Idorsia Pharmaceuticals Ltd,PLASMA,LC-MS/MS,,1,91,2019-12-12T07:30,91,,24H,24,PT24H,Day 1 Dosing,
20214751,PC,20214751-238,277,C5A,ACT-1014-6470,ANALYTE,52.2,ng/mL,52.2,52.2,ng/mL,,Idorsia Pharmaceuticals Ltd,PLASMA,LC-MS/MS,,1,91,2019-12-12T07:30,91,,24H,24,PT24H,Day 1 Dosing,
20214751,PC,20214751-242,278,C5A,ACT-1014-6470,ANALYTE,39.3,ng/mL,39.3,39.3,ng/mL,,Idorsia Pharmaceuticals Ltd,PLASMA,LC-MS/MS,,1,91,2019-12-12T07:30,91,,24H,24,PT24H,Day 1 Dosing,
20214751,PC,20214751-243,279,C5A,ACT-1014-6470,ANALYTE,125,ng/mL,125,125,ng/mL,,Idorsia Pharmaceuticals Ltd,PLASMA,LC-MS/MS,,1,91,2019-12-12T07:30,91,,24H,24,PT24H,Day 1 Dosing,
20214751,PC,20214751-244,280,C5A,ACT-1014-6470,ANALYTE,744,ng/mL,744,744,ng/mL,,Idorsia Pharmaceuticals Ltd,PLASMA,LC-MS/MS,,1,91,2019-12-12T07:30,91,,24H,24,PT24H,Day 1 Dosing,
20214751,PC,20214751-248,281,C5A,ACT-1014-6470,ANALYTE,36,ng/mL,36,36,ng/mL,,Idorsia Pharmaceuticals Ltd,PLASMA,LC-MS/MS,,1,91,2019-12-12T07:30,91,,24H,24,PT24H,Day 1 Dosing,
20214751,PC,20214751-249,282,C5A,ACT-1014-6470,ANALYTE,41.3,ng/mL,41.3,41.3,ng/mL,,Idorsia Pharmaceuticals Ltd,PLASMA,LC-MS/MS,,1,91,2019-12-12T07:30,91,,24H,24,PT24H,Day 1 Dosing,
20214751,PC,20214751-250,283,C5A,ACT-1014-6470,ANALYTE,373,ng/mL,373,373,ng/mL,,Idorsia Pharmaceuticals Ltd,PLASMA,LC-MS/MS,,1,91,2019-12-12T07:30,91,,24H,24,PT24H,Day 1 Dosing,
20214751,PC,20214751-254,284,C5A,ACT-1014-6470,ANALYTE,83.9,ng/mL,83.9,83.9,ng/mL,,Idorsia Pharmaceuticals Ltd,PLASMA,LC-MS/MS,,1,91,2019-12-12T07:30,91,,24H,24,PT24H,Day 1 Dosing,
20214751,PC,20214751-255,285,C5A,ACT-1014-6470,ANALYTE,50.8,ng/mL,50.8,50.8,ng/mL,,Idorsia Pharmaceuticals Ltd,PLASMA,LC-MS/MS,,1,91,2019-12-12T07:30,91,,24H,24,PT24H,Day 1 Dosing,
20214751,PC,20214751-256,286,C5A,ACT-1014-6470,ANALYTE,40.5,ng/mL,40.5,40.5,ng/mL,,Idorsia Pharmaceuticals Ltd,PLASMA,LC-MS/MS,,1,91,2019-12-12T07:30,91,,24H,24,PT24H,Day 1 Dosing,
20214751,PC,20214751-166,287,C5A,ACT-1014-6470,ANALYTE,11100,ng/mL,11100,11100,ng/mL,,Idorsia Pharmaceuticals Ltd,PLASMA,LC-MS/MS,,1,169,2020-02-26T11H30,169,,4H,4,PT4H,Day 1 Dosing,
20214751,PC,20214751-49,288,C5A,ACT-1014-6470,ANALYTE,BLQ,ng/mL,BLQ,,,BELOW DETECTION LIMIT,Idorsia Pharmaceuticals Ltd,PLASMA,LC-MS/MS,,1,171,2020-03-01T09H41,171,,2.19H,2.19,PT2.19H,Day 1 Dosing,
20214751,PC,20214751-172,289,C5A,ACT-1014-6470,ANALYTE,72.5,ng/mL,72.5,72.5,ng/mL,,Idorsia Pharmaceuticals Ltd,PLASMA,LC-MS/MS,,1,175,2020-03-05T06H30,175,,23H,23,PT23H,Day 1 Dosing,
20214751,PC,20214751-209,290,C5A,ACT-1014-6470,ANALYTE,BLQ,ng/mL,BLQ,,,BELOW DETECTION LIMIT,Idorsia Pharmaceuticals Ltd,PLASMA,LC-MS/MS,,1,176,2020-03-06T08H00,176,,0.5H,0.5,PT0.5H,Day 1 Dosing,
20214751,PC,20214751-210,291,C5A,ACT-1014-6470,ANALYTE,BLQ,ng/mL,BLQ,,,BELOW DETECTION LIMIT,Idorsia Pharmaceuticals Ltd,PLASMA,LC-MS/MS,,1,176,2020-03-06T08H00,176,,0.5H,0.5,PT0.5H,Day 1 Dosing,
20214751,PC,20214751-211,292,C5A,ACT-1014-6470,ANALYTE,BLQ,ng/mL,BLQ,,,BELOW DETECTION LIMIT,Idorsia Pharmaceuticals Ltd,PLASMA,LC-MS/MS,,1,176,2020-03-06T08H00,176,,0.5H,0.5,PT0.5H,Day 1 Dosing,
20214751,PC,20214751-215,293,C5A,ACT-1014-6470,ANALYTE,BLQ,ng/mL,BLQ,,,BELOW DETECTION LIMIT,Idorsia Pharmaceuticals Ltd,PLASMA,LC-MS/MS,,1,176,2020-03-06T08H00,176,,0.5H,0.5,PT0.5H,Day 1 Dosing,
20214751,PC,20214751-216,294,C5A,ACT-1014-6470,ANALYTE,BLQ,ng/mL,BLQ,,,BELOW DETECTION LIMIT,Idorsia Pharmaceuticals Ltd,PLASMA,LC-MS/MS,,1,176,2020-03-06T08H00,176,,0.5H,0.5,PT0.5H,Day 1 Dosing,
20214751,PC,20214751-217,295,C5A,ACT-1014-6470,ANALYTE,BLQ,ng/mL,BLQ,,,BELOW DETECTION LIMIT,Idorsia Pharmaceuticals Ltd,PLASMA,LC-MS/MS,,1,176,2020-03-06T08H00,176,,0.5H,0.5,PT0.5H,Day 1 Dosing,
20214751,PC,20214751-221,296,C5A,ACT-1014-6470,ANALYTE,443,ng/mL,443,443,ng/mL,,Idorsia Pharmaceuticals Ltd,PLASMA,LC-MS/MS,,1,176,2020-03-06T08H00,176,,0.5H,0.5,PT0.5H,Day 1 Dosing,
20214751,PC,20214751-222,297,C5A,ACT-1014-6470,ANALYTE,334,ng/mL,334,334,ng/mL,,Idorsia Pharmaceuticals Ltd,PLASMA,LC-MS/MS,,1,176,2020-03-06T08H00,176,,0.5H,0.5,PT0.5H,Day 1 Dosing,
20214751,PC,20214751-223,298,C5A,ACT-1014-6470,ANALYTE,242,ng/mL,242,242,ng/mL,,Idorsia Pharmaceuticals Ltd,PLASMA,LC-MS/MS,,1,176,2020-03-06T08H00,176,,0.5H,0.5,PT0.5H,Day 1 Dosing,
20214751,PC,20214751-227,299,C5A,ACT-1014-6470,ANALYTE,642,ng/mL,642,642,ng/mL,,Idorsia Pharmaceuticals Ltd,PLASMA,LC-MS/MS,,1,176,2020-03-06T08H00,176,,0.5H,0.5,PT0.5H,Day 1 Dosing,
20214751,PC,20214751-228,300,C5A,ACT-1014-6470,ANALYTE,442,ng/mL,442,442,ng/mL,,Idorsia Pharmaceuticals Ltd,PLASMA,LC-MS/MS,,1,176,2020-03-06T08H00,176,,0.5H,0.5,PT0.5H,Day 1 Dosing,
20214751,PC,20214751-229,301,C5A,ACT-1014-6470,ANALYTE,210,ng/mL,210,210,ng/mL,,Idorsia Pharmaceuticals Ltd,PLASMA,LC-MS/MS,,1,176,2020-03-06T08H00,176,,0.5H,0.5,PT0.5H,Day 1 Dosing,
20214751,PC,20214751-233,302,C5A,ACT-1014-6470,ANALYTE,648,ng/mL,648,648,ng/mL,,Idorsia Pharmaceuticals Ltd,PLASMA,LC-MS/MS,,1,176,2020-03-06T08H00,176,,0.5H,0.5,PT0.5H,Day 1 Dosing,
20214751,PC,20214751-234,303,C5A,ACT-1014-6470,ANALYTE,1560,ng/mL,1560,1560,ng/mL,,Idorsia Pharmaceuticals Ltd,PLASMA,LC-MS/MS,,1,176,2020-03-06T08H00,176,,0.5H,0.5,PT0.5H,Day 1 Dosing,
20214751,PC,20214751-235,304,C5A,ACT-1014-6470,ANALYTE,783,ng/mL,783,783,ng/mL,,Idorsia Pharmaceuticals Ltd,PLASMA,LC-MS/MS,,1,176,2020-03-06T08H00,176,,0.5H,0.5,PT0.5H,Day 1 Dosing,
20214751,PC,20214751-239,305,C5A,ACT-1014-6470,ANALYTE,1790,ng/mL,1790,1790,ng/mL,,Idorsia Pharmaceuticals Ltd,PLASMA,LC-MS/MS,,1,176,2020-03-06T08H00,176,,0.5H,0.5,PT0.5H,Day 1 Dosing,
20214751,PC,20214751-240,306,C5A,ACT-1014-6470,ANALYTE,1560,ng/mL,1560,1560,ng/mL,,Idorsia Pharmaceuticals Ltd,PLASMA,LC-MS/MS,,1,176,2020-03-06T08H00,176,,0.5H,0.5,PT0.5H,Day 1 Dosing,
20214751,PC,20214751-241,307,C5A,ACT-1014-6470,ANALYTE,1520,ng/mL,1520,1520,ng/mL,,Idorsia Pharmaceuticals Ltd,PLASMA,LC-MS/MS,,1,176,2020-03-06T08H00,176,,0.5H,0.5,PT0.5H,Day 1 Dosing,
20214751,PC,20214751-245,308,C5A,ACT-1014-6470,ANALYTE,2390,ng/mL,2390,2390,ng/mL,,Idorsia Pharmaceuticals Ltd,PLASMA,LC-MS/MS,,1,176,2020-03-06T08H00,176,,0.5H,0.5,PT0.5H,Day 1 Dosing,
20214751,PC,20214751-246,309,C5A,ACT-1014-6470,ANALYTE,2090,ng/mL,2090,2090,ng/mL,,Idorsia Pharmaceuticals Ltd,PLASMA,LC-MS/MS,,1,176,2020-03-06T08H00,176,,0.5H,0.5,PT0.5H,Day 1 Dosing,
20214751,PC,20214751-247,310,C5A,ACT-1014-6470,ANALYTE,1930,ng/mL,1930,1930,ng/mL,,Idorsia Pharmaceuticals Ltd,PLASMA,LC-MS/MS,,1,176,2020-03-06T08H00,176,,0.5H,0.5,PT0.5H,Day 1 Dosing,
20214751,PC,20214751-251,311,C5A,ACT-1014-6470,ANALYTE,4680,ng/mL,4680,4680,ng/mL,,Idorsia Pharmaceuticals Ltd,PLASMA,LC-MS/MS,,1,176,2020-03-06T08H00,176,,0.5H,0.5,PT0.5H,Day 1 Dosing,
20214751,PC,20214751-252,312,C5A,ACT-1014-6470,ANALYTE,2490,ng/mL,2490,2490,ng/mL,,Idorsia Pharmaceuticals Ltd,PLASMA,LC-MS/MS,,1,176,2020-03-06T08H00,176,,0.5H,0.5,PT0.5H,Day 1 Dosing,
20214751,PC,20214751-253,313,C5A,ACT-1014-6470,ANALYTE,4250,ng/mL,4250,4250,ng/mL,,Idorsia Pharmaceuticals Ltd,PLASMA,LC-MS/MS,,1,176,2020-03-06T08H00,176,,0.5H,0.5,PT0.5H,Day 1 Dosing,
20214751,PC,20214751-212,314,C5A,ACT-1014-6470,ANALYTE,BLQ,ng/mL,BLQ,,,BELOW DETECTION LIMIT,Idorsia Pharmaceuticals Ltd,PLASMA,LC-MS/MS,,1,176,2020-03-06T08H30,176,,1H,1,PT1H,Day 1 Dosing,
20214751,PC,20214751-213,315,C5A,ACT-1014-6470,ANALYTE,BLQ,ng/mL,BLQ,,,BELOW DETECTION LIMIT,Idorsia Pharmaceuticals Ltd,PLASMA,LC-MS/MS,,1,176,2020-03-06T08H30,176,,1H,1,PT1H,Day 1 Dosing,
20214751,PC,20214751-214,316,C5A,ACT-1014-6470,ANALYTE,BLQ,ng/mL,BLQ,,,BELOW DETECTION LIMIT,Idorsia Pharmaceuticals Ltd,PLASMA,LC-MS/MS,,1,176,2020-03-06T08H30,176,,1H,1,PT1H,Day 1 Dosing,
20214751,PC,20214751-218,317,C5A,ACT-1014-6470,ANALYTE,BLQ,ng/mL,BLQ,,,BELOW DETECTION LIMIT,Idorsia Pharmaceuticals Ltd,PLASMA,LC-MS/MS,,1,176,2020-03-06T08H30,176,,1H,1,PT1H,Day 1 Dosing,
20214751,PC,20214751-219,318,C5A,ACT-1014-6470,ANALYTE,BLQ,ng/mL,BLQ,,,BELOW DETECTION LIMIT,Idorsia Pharmaceuticals Ltd,PLASMA,LC-MS/MS,,1,176,2020-03-06T08H30,176,,1H,1,PT1H,Day 1 Dosing,
20214751,PC,20214751-220,319,C5A,ACT-1014-6470,ANALYTE,BLQ,ng/mL,BLQ,,,BELOW DETECTION LIMIT,Idorsia Pharmaceuticals Ltd,PLASMA,LC-MS/MS,,1,176,2020-03-06T08H30,176,,1H,1,PT1H,Day 1 Dosing,
20214751,PC,20214751-224,320,C5A,ACT-1014-6470,ANALYTE,1030,ng/mL,1030,1030,ng/mL,,Idorsia Pharmaceuticals Ltd,PLASMA,LC-MS/MS,,1,176,2020-03-06T08H30,176,,1H,1,PT1H,Day 1 Dosing,
20214751,PC,20214751-225,321,C5A,ACT-1014-6470,ANALYTE,680,ng/mL,680,680,ng/mL,,Idorsia Pharmaceuticals Ltd,PLASMA,LC-MS/MS,,1,176,2020-03-06T08H30,176,,1H,1,PT1H,Day 1 Dosing,
20214751,PC,20214751-226,322,C5A,ACT-1014-6470,ANALYTE,472,ng/mL,472,472,ng/mL,,Idorsia Pharmaceuticals Ltd,PLASMA,LC-MS/MS,,1,176,2020-03-06T08H30,176,,1H,1,PT1H,Day 1 Dosing,
20214751,PC,20214751-230,323,C5A,ACT-1014-6470,ANALYTE,452,ng/mL,452,452,ng/mL,,Idorsia Pharmaceuticals Ltd,PLASMA,LC-MS/MS,,1,176,2020-03-06T08H30,176,,1H,1,PT1H,Day 1 Dosing,
20214751,PC,20214751-231,324,C5A,ACT-1014-6470,ANALYTE,535,ng/mL,535,535,ng/mL,,Idorsia Pharmaceuticals Ltd,PLASMA,LC-MS/MS,,1,176,2020-03-06T08H30,176,,1H,1,PT1H,Day 1 Dosing,
20214751,PC,20214751-232,325,C5A,ACT-1014-6470,ANALYTE,1170,ng/mL,1170,1170,ng/mL,,Idorsia Pharmaceuticals Ltd,PLASMA,LC-MS/MS,,1,176,2020-03-06T08H30,176,,1H,1,PT1H,Day 1 Dosing,
20214751,PC,20214751-233,326,C5A,ACT-1014-6470,ANALYTE,1610,ng/mL,1610,1610,ng/mL,,Idorsia Pharmaceuticals Ltd,PLASMA,LC-MS/MS,,1,176,2020-03-06T08H30,176,,1H,1,PT1H,Day 1 Dosing,
20214751,PC,20214751-237,327,C5A,ACT-1014-6470,ANALYTE,4280,ng/mL,4280,4280,ng/mL,,Idorsia Pharmaceuticals Ltd,PLASMA,LC-MS/MS,,1,176,2020-03-06T08H30,176,,1H,1,PT1H,Day 1 Dosing,
20214751,PC,20214751-238,328,C5A,ACT-1014-6470,ANALYTE,2040,ng/mL,2040,2040,ng/mL,,Idorsia Pharmaceuticals Ltd,PLASMA,LC-MS/MS,,1,176,2020-03-06T08H30,176,,1H,1,PT1H,Day 1 Dosing,
20214751,PC,20214751-242,329,C5A,ACT-1014-6470,ANALYTE,2440,ng/mL,2440,2440,ng/mL,,Idorsia Pharmaceuticals Ltd,PLASMA,LC-MS/MS,,1,176,2020-03-06T08H30,176,,1H,1,PT1H,Day 1 Dosing,
20214751,PC,20214751-243,330,C5A,ACT-1014-6470,ANALYTE,3840,ng/mL,3840,3840,ng/mL,,Idorsia Pharmaceuticals Ltd,PLASMA,LC-MS/MS,,1,176,2020-03-06T08H30,176,,1H,1,PT1H,Day 1 Dosing,
20214751,PC,20214751-244,331,C5A,ACT-1014-6470,ANALYTE,4020,ng/mL,4020,4020,ng/mL,,Idorsia Pharmaceuticals Ltd,PLASMA,LC-MS/MS,,1,176,2020-03-06T08H30,176,,1H,1,PT1H,Day 1 Dosing,
20214751,PC,20214751-248,332,C5A,ACT-1014-6470,ANALYTE,1740,ng/mL,1740,1740,ng/mL,,Idorsia Pharmaceuticals Ltd,PLASMA,LC-MS/MS,,1,176,2020-03-06T08H30,176,,1H,1,PT1H,Day 1 Dosing,
20214751,PC,20214751-249,333,C5A,ACT-1014-6470,ANALYTE,2800,ng/mL,2800,2800,ng/mL,,Idorsia Pharmaceuticals Ltd,PLASMA,LC-MS/MS,,1,176,2020-03-06T08H30,176,,1H,1,PT1H,Day 1 Dosing,
20214751,PC,20214751-250,334,C5A,ACT-1014-6470,ANALYTE,5910,ng/mL,5910,5910,ng/mL,,Idorsia Pharmaceuticals Ltd,PLASMA,LC-MS/MS,,1,176,2020-03-06T08H30,176,,1H,1,PT1H,Day 1 Dosing,
20214751,PC,20214751-254,335,C5A,ACT-1014-6470,ANALYTE,4990,ng/mL,4990,4990,ng/mL,,Idorsia Pharmaceuticals Ltd,PLASMA,LC-MS/MS,,1,176,2020-03-06T08H30,176,,1H,1,PT1H,Day 1 Dosing,
20214751,PC,20214751-255,336,C5A,ACT-1014-6470,ANALYTE,2530,ng/mL,2530,2530,ng/mL,,Idorsia Pharmaceuticals Ltd,PLASMA,LC-MS/MS,,1,176,2020-03-06T08H30,176,,1H,1,PT1H,Day 1 Dosing,
20214751,PC,20214751-256,337,C5A,ACT-1014-6470,ANALYTE,3350,ng/mL,3350,3350,ng/mL,,Idorsia Pharmaceuticals Ltd,PLASMA,LC-MS/MS,,1,176,2020-03-06T08H30,176,,1H,1,PT1H,Day 1 Dosing,
20214751,PC,20214751-209,338,C5A,ACT-1014-6470,ANALYTE,BLQ,ng/mL,BLQ,,,BELOW DETECTION LIMIT,Idorsia Pharmaceuticals Ltd,PLASMA,LC-MS/MS,,1,176,2020-03-06T09H30,176,,2H,2,PT2H,Day 1 Dosing,
20214751,PC,20214751-210,339,C5A,ACT-1014-6470,ANALYTE,BLQ,ng/mL,BLQ,,,BELOW DETECTION LIMIT,Idorsia Pharmaceuticals Ltd,PLASMA,LC-MS/MS,,1,176,2020-03-06T09H30,176,,2H,2,PT2H,Day 1 Dosing,
20214751,PC,20214751-211,340,C5A,ACT-1014-6470,ANALYTE,BLQ,ng/mL,BLQ,,,BELOW DETECTION LIMIT,Idorsia Pharmaceuticals Ltd,PLASMA,LC-MS/MS,,1,176,2020-03-06T09H30,176,,2H,2,PT2H,Day 1 Dosing,
20214751,PC,20214751-215,341,C5A,ACT-1014-6470,ANALYTE,BLQ,ng/mL,BLQ,,,BELOW DETECTION LIMIT,Idorsia Pharmaceuticals Ltd,PLASMA,LC-MS/MS,,1,176,2020-03-06T09H30,176,,2H,2,PT2H,Day 1 Dosing,
20214751,PC,20214751-216,342,C5A,ACT-1014-6470,ANALYTE,BLQ,ng/mL,BLQ,,,BELOW DETECTION LIMIT,Idorsia Pharmaceuticals Ltd,PLASMA,LC-MS/MS,,1,176,2020-03-06T09H30,176,,2H,2,PT2H,Day 1 Dosing,
20214751,PC,20214751-217,343,C5A,ACT-1014-6470,ANALYTE,BLQ,ng/mL,BLQ,,,BELOW DETECTION LIMIT,Idorsia Pharmaceuticals Ltd,PLASMA,LC-MS/MS,,1,176,2020-03-06T09H30,176,,2H,2,PT2H,Day 1 Dosing,
20214751,PC,20214751-221,344,C5A,ACT-1014-6470,ANALYTE,846,ng/mL,846,846,ng/mL,,Idorsia Pharmaceuticals Ltd,PLASMA,LC-MS/MS,,1,176,2020-03-06T09H30,176,,2H,2,PT2H,Day 1 Dosing,
20214751,PC,20214751-222,345,C5A,ACT-1014-6470,ANALYTE,950,ng/mL,950,950,ng/mL,,Idorsia Pharmaceuticals Ltd,PLASMA,LC-MS/MS,,1,176,2020-03-06T09H30,176,,2H,2,PT2H,Day 1 Dosing,
20214751,PC,20214751-223,346,C5A,ACT-1014-6470,ANALYTE,716,ng/mL,716,716,ng/mL,,Idorsia Pharmaceuticals Ltd,PLASMA,LC-MS/MS,,1,176,2020-03-06T09H30,176,,2H,2,PT2H,Day 1 Dosing,
20214751,PC,20214751-227,347,C5A,ACT-1014-6470,ANALYTE,1260,ng/mL,1260,1260,ng/mL,,Idorsia Pharmaceuticals Ltd,PLASMA,LC-MS/MS,,1,176,2020-03-06T09H30,176,,2H,2,PT2H,Day 1 Dosing,
20214751,PC,20214751-228,348,C5A,ACT-1014-6470,ANALYTE,716,ng/mL,716,716,ng/mL,,Idorsia Pharmaceuticals Ltd,PLASMA,LC-MS/MS,,1,176,2020-03-06T09H30,176,,2H,2,PT2H,Day 1 Dosing,
20214751,PC,20214751-229,349,C5A,ACT-1014-6470,ANALYTE,545,ng/mL,545,545,ng/mL,,Idorsia Pharmaceuticals Ltd,PLASMA,LC-MS/MS,,1,176,2020-03-06T09H30,176,,2H,2,PT2H,Day 1 Dosing,
20214751,PC,20214751-233,350,C5A,ACT-1014-6470,ANALYTE,1560,ng/mL,1560,1560,ng/mL,,Idorsia Pharmaceuticals Ltd,PLASMA,LC-MS/MS,,1,176,2020-03-06T09H30,176,,2H,2,PT2H,Day 1 Dosing,
20214751,PC,20214751-234,351,C5A,ACT-1014-6470,ANALYTE,3650,ng/mL,3650,3650,ng/mL,,Idorsia Pharmaceuticals Ltd,PLASMA,LC-MS/MS,,1,176,2020-03-06T09H30,176,,2H,2,PT2H,Day 1 Dosing,
20214751,PC,20214751-235,352,C5A,ACT-1014-6470,ANALYTE,2850,ng/mL,2850,2850,ng/mL,,Idorsia Pharmaceuticals Ltd,PLASMA,LC-MS/MS,,1,176,2020-03-06T09H30,176,,2H,2,PT2H,Day 1 Dosing,
20214751,PC,20214751-239,353,C5A,ACT-1014-6470,ANALYTE,5640,ng/mL,5640,5640,ng/mL,,Idorsia Pharmaceuticals Ltd,PLASMA,LC-MS/MS,,1,176,2020-03-06T09H30,176,,2H,2,PT2H,Day 1 Dosing,
20214751,PC,20214751-240,354,C5A,ACT-1014-6470,ANALYTE,4920,ng/mL,4920,4920,ng/mL,,Idorsia Pharmaceuticals Ltd,PLASMA,LC-MS/MS,,1,176,2020-03-06T09H30,176,,2H,2,PT2H,Day 1 Dosing,
20214751,PC,20214751-241,355,C5A,ACT-1014-6470,ANALYTE,3720,ng/mL,3720,3720,ng/mL,,Idorsia Pharmaceuticals Ltd,PLASMA,LC-MS/MS,,1,176,2020-03-06T09H30,176,,2H,2,PT2H,Day 1 Dosing,
20214751,PC,20214751-245,356,C5A,ACT-1014-6470,ANALYTE,2130,ng/mL,2130,2130,ng/mL,,Idorsia Pharmaceuticals Ltd,PLASMA,LC-MS/MS,,1,176,2020-03-06T09H30,176,,2H,2,PT2H,Day 1 Dosing,
20214751,PC,20214751-246,357,C5A,ACT-1014-6470,ANALYTE,2710,ng/mL,2710,2710,ng/mL,,Idorsia Pharmaceuticals Ltd,PLASMA,LC-MS/MS,,1,176,2020-03-06T09H30,176,,2H,2,PT2H,Day 1 Dosing,
20214751,PC,20214751-247,358,C5A,ACT-1014-6470,ANALYTE,4390,ng/mL,4390,4390,ng/mL,,Idorsia Pharmaceuticals Ltd,PLASMA,LC-MS/MS,,1,176,2020-03-06T09H30,176,,2H,2,PT2H,Day 1 Dosing,
20214751,PC,20214751-251,359,C5A,ACT-1014-6470,ANALYTE,6820,ng/mL,6820,6820,ng/mL,,Idorsia Pharmaceuticals Ltd,PLASMA,LC-MS/MS,,1,176,2020-03-06T09H30,176,,2H,2,PT2H,Day 1 Dosing,
20214751,PC,20214751-252,360,C5A,ACT-1014-6470,ANALYTE,897,ng/mL,897,897,ng/mL,,Idorsia Pharmaceuticals Ltd,PLASMA,LC-MS/MS,,1,176,2020-03-06T09H30,176,,2H,2,PT2H,Day 1 Dosing,
20214751,PC,20214751-253,361,C5A,ACT-1014-6470,ANALYTE,4630,ng/mL,4630,4630,ng/mL,,Idorsia Pharmaceuticals Ltd,PLASMA,LC-MS/MS,,1,176,2020-03-06T09H30,176,,2H,2,PT2H,Day 1 Dosing,
20214751,PC,20214751-212,362,C5A,ACT-1014-6470,ANALYTE,BLQ,ng/mL,BLQ,,,BELOW DETECTION LIMIT,Idorsia Pharmaceuticals Ltd,PLASMA,LC-MS/MS,,1,176,2020-03-06T11H30,176,,4H,4,PT4H,Day 1 Dosing,
20214751,PC,20214751-213,363,C5A,ACT-1014-6470,ANALYTE,BLQ,ng/mL,BLQ,,,BELOW DETECTION LIMIT,Idorsia Pharmaceuticals Ltd,PLASMA,LC-MS/MS,,1,176,2020-03-06T11H30,176,,4H,4,PT4H,Day 1 Dosing,
20214751,PC,20214751-214,364,C5A,ACT-1014-6470,ANALYTE,BLQ,ng/mL,BLQ,,,BELOW DETECTION LIMIT,Idorsia Pharmaceuticals Ltd,PLASMA,LC-MS/MS,,1,176,2020-03-06T11H30,176,,4H,4,PT4H,Day 1 Dosing,
20214751,PC,20214751-218,365,C5A,ACT-1014-6470,ANALYTE,BLQ,ng/mL,BLQ,,,BELOW DETECTION LIMIT,Idorsia Pharmaceuticals Ltd,PLASMA,LC-MS/MS,,1,176,2020-03-06T11H30,176,,4H,4,PT4H,Day 1 Dosing,
20214751,PC,20214751-219,366,C5A,ACT-1014-6470,ANALYTE,BLQ,ng/mL,BLQ,,,BELOW DETECTION LIMIT,Idorsia Pharmaceuticals Ltd,PLASMA,LC-MS/MS,,1,176,2020-03-06T11H30,176,,4H,4,PT4H,Day 1 Dosing,
20214751,PC,20214751-220,367,C5A,ACT-1014-6470,ANALYTE,BLQ,ng/mL,BLQ,,,BELOW DETECTION LIMIT,Idorsia Pharmaceuticals Ltd,PLASMA,LC-MS/MS,,1,176,2020-03-06T11H30,176,,4H,4,PT4H,Day 1 Dosing,
20214751,PC,20214751-224,368,C5A,ACT-1014-6470,ANALYTE,749,ng/mL,749,749,ng/mL,,Idorsia Pharmaceuticals Ltd,PLASMA,LC-MS/MS,,1,176,2020-03-06T11H30,176,,4H,4,PT4H,Day 1 Dosing,
20214751,PC,20214751-225,369,C5A,ACT-1014-6470,ANALYTE,401,ng/mL,401,401,ng/mL,,Idorsia Pharmaceuticals Ltd,PLASMA,LC-MS/MS,,1,176,2020-03-06T11H30,176,,4H,4,PT4H,Day 1 Dosing,
20214751,PC,20214751-226,370,C5A,ACT-1014-6470,ANALYTE,425,ng/mL,425,425,ng/mL,,Idorsia Pharmaceuticals Ltd,PLASMA,LC-MS/MS,,1,176,2020-03-06T11H30,176,,4H,4,PT4H,Day 1 Dosing,
20214751,PC,20214751-230,371,C5A,ACT-1014-6470,ANALYTE,202,ng/mL,202,202,ng/mL,,Idorsia Pharmaceuticals Ltd,PLASMA,LC-MS/MS,,1,176,2020-03-06T11H30,176,,4H,4,PT4H,Day 1 Dosing,
20214751,PC,20214751-231,372,C5A,ACT-1014-6470,ANALYTE,218,ng/mL,218,218,ng/mL,,Idorsia Pharmaceuticals Ltd,PLASMA,LC-MS/MS,,1,176,2020-03-06T11H30,176,,4H,4,PT4H,Day 1 Dosing,
20214751,PC,20214751-232,373,C5A,ACT-1014-6470,ANALYTE,711,ng/mL,711,711,ng/mL,,Idorsia Pharmaceuticals Ltd,PLASMA,LC-MS/MS,,1,176,2020-03-06T11H30,176,,4H,4,PT4H,Day 1 Dosing,
20214751,PC,20214751-234,374,C5A,ACT-1014-6470,ANALYTE,5340,ng/mL,5340,5340,ng/mL,,Idorsia Pharmaceuticals Ltd,PLASMA,LC-MS/MS,,1,176,2020-03-06T11H30,176,,4H,4,PT4H,Day 1 Dosing,
20214751,PC,20214751-237,375,C5A,ACT-1014-6470,ANALYTE,7030,ng/mL,7030,7030,ng/mL,,Idorsia Pharmaceuticals Ltd,PLASMA,LC-MS/MS,,1,176,2020-03-06T11H30,176,,4H,4,PT4H,Day 1 Dosing,
20214751,PC,20214751-238,376,C5A,ACT-1014-6470,ANALYTE,1410,ng/mL,1410,1410,ng/mL,,Idorsia Pharmaceuticals Ltd,PLASMA,LC-MS/MS,,1,176,2020-03-06T11H30,176,,4H,4,PT4H,Day 1 Dosing,
20214751,PC,20214751-242,377,C5A,ACT-1014-6470,ANALYTE,1430,ng/mL,1430,1430,ng/mL,,Idorsia Pharmaceuticals Ltd,PLASMA,LC-MS/MS,,1,176,2020-03-06T11H30,176,,4H,4,PT4H,Day 1 Dosing,
20214751,PC,20214751-243,378,C5A,ACT-1014-6470,ANALYTE,2120,ng/mL,2120,2120,ng/mL,,Idorsia Pharmaceuticals Ltd,PLASMA,LC-MS/MS,,1,176,2020-03-06T11H30,176,,4H,4,PT4H,Day 1 Dosing,
20214751,PC,20214751-244,379,C5A,ACT-1014-6470,ANALYTE,4500,ng/mL,4500,4500,ng/mL,,Idorsia Pharmaceuticals Ltd,PLASMA,LC-MS/MS,,1,176,2020-03-06T11H30,176,,4H,4,PT4H,Day 1 Dosing,
20214751,PC,20214751-248,380,C5A,ACT-1014-6470,ANALYTE,415,ng/mL,415,415,ng/mL,,Idorsia Pharmaceuticals Ltd,PLASMA,LC-MS/MS,,1,176,2020-03-06T11H30,176,,4H,4,PT4H,Day 1 Dosing,
20214751,PC,20214751-249,381,C5A,ACT-1014-6470,ANALYTE,793,ng/mL,793,793,ng/mL,,Idorsia Pharmaceuticals Ltd,PLASMA,LC-MS/MS,,1,176,2020-03-06T11H30,176,,4H,4,PT4H,Day 1 Dosing,
20214751,PC,20214751-250,382,C5A,ACT-1014-6470,ANALYTE,4870,ng/mL,4870,4870,ng/mL,,Idorsia Pharmaceuticals Ltd,PLASMA,LC-MS/MS,,1,176,2020-03-06T11H30,176,,4H,4,PT4H,Day 1 Dosing,
20214751,PC,20214751-254,383,C5A,ACT-1014-6470,ANALYTE,914,ng/mL,914,914,ng/mL,,Idorsia Pharmaceuticals Ltd,PLASMA,LC-MS/MS,,1,176,2020-03-06T11H30,176,,4H,4,PT4H,Day 1 Dosing,
20214751,PC,20214751-255,384,C5A,ACT-1014-6470,ANALYTE,725,ng/mL,725,725,ng/mL,,Idorsia Pharmaceuticals Ltd,PLASMA,LC-MS/MS,,1,176,2020-03-06T11H30,176,,4H,4,PT4H,Day 1 Dosing,
20214751,PC,20214751-256,385,C5A,ACT-1014-6470,ANALYTE,1020,ng/mL,1020,1020,ng/mL,,Idorsia Pharmaceuticals Ltd,PLASMA,LC-MS/MS,,1,176,2020-03-06T11H30,176,,4H,4,PT4H,Day 1 Dosing,
20214751,PC,20214751-209,386,C5A,ACT-1014-6470,ANALYTE,BLQ,ng/mL,BLQ,,,BELOW DETECTION LIMIT,Idorsia Pharmaceuticals Ltd,PLASMA,LC-MS/MS,,1,176,2020-03-06T15H30,176,,8H,8,PT8H,Day 1 Dosing,
20214751,PC,20214751-210,387,C5A,ACT-1014-6470,ANALYTE,BLQ,ng/mL,BLQ,,,BELOW DETECTION LIMIT,Idorsia Pharmaceuticals Ltd,PLASMA,LC-MS/MS,,1,176,2020-03-06T15H30,176,,8H,8,PT8H,Day 1 Dosing,
20214751,PC,20214751-211,388,C5A,ACT-1014-6470,ANALYTE,BLQ,ng/mL,BLQ,,,BELOW DETECTION LIMIT,Idorsia Pharmaceuticals Ltd,PLASMA,LC-MS/MS,,1,176,2020-03-06T15H30,176,,8H,8,PT8H,Day 1 Dosing,
20214751,PC,20214751-215,389,C5A,ACT-1014-6470,ANALYTE,BLQ,ng/mL,BLQ,,,BELOW DETECTION LIMIT,Idorsia Pharmaceuticals Ltd,PLASMA,LC-MS/MS,,1,176,2020-03-06T15H30,176,,8H,8,PT8H,Day 1 Dosing,
20214751,PC,20214751-216,390,C5A,ACT-1014-6470,ANALYTE,BLQ,ng/mL,BLQ,,,BELOW DETECTION LIMIT,Idorsia Pharmaceuticals Ltd,PLASMA,LC-MS/MS,,1,176,2020-03-06T15H30,176,,8H,8,PT8H,Day 1 Dosing,
20214751,PC,20214751-217,391,C5A,ACT-1014-6470,ANALYTE,BLQ,ng/mL,BLQ,,,BELOW DETECTION LIMIT,Idorsia Pharmaceuticals Ltd,PLASMA,LC-MS/MS,,1,176,2020-03-06T15H30,176,,8H,8,PT8H,Day 1 Dosing,
20214751,PC,20214751-221,392,C5A,ACT-1014-6470,ANALYTE,418,ng/mL,418,418,ng/mL,,Idorsia Pharmaceuticals Ltd,PLASMA,LC-MS/MS,,1,176,2020-03-06T15H30,176,,8H,8,PT8H,Day 1 Dosing,
20214751,PC,20214751-222,393,C5A,ACT-1014-6470,ANALYTE,172,ng/mL,172,172,ng/mL,,Idorsia Pharmaceuticals Ltd,PLASMA,LC-MS/MS,,1,176,2020-03-06T15H30,176,,8H,8,PT8H,Day 1 Dosing,
20214751,PC,20214751-223,394,C5A,ACT-1014-6470,ANALYTE,229,ng/mL,229,229,ng/mL,,Idorsia Pharmaceuticals Ltd,PLASMA,LC-MS/MS,,1,176,2020-03-06T15H30,176,,8H,8,PT8H,Day 1 Dosing,
20214751,PC,20214751-227,395,C5A,ACT-1014-6470,ANALYTE,796,ng/mL,796,796,ng/mL,,Idorsia Pharmaceuticals Ltd,PLASMA,LC-MS/MS,,1,176,2020-03-06T15H30,176,,8H,8,PT8H,Day 1 Dosing,
20214751,PC,20214751-228,396,C5A,ACT-1014-6470,ANALYTE,103,ng/mL,103,103,ng/mL,,Idorsia Pharmaceuticals Ltd,PLASMA,LC-MS/MS,,1,176,2020-03-06T15H30,176,,8H,8,PT8H,Day 1 Dosing,
20214751,PC,20214751-229,397,C5A,ACT-1014-6470,ANALYTE,96.3,ng/mL,96.3,96.3,ng/mL,,Idorsia Pharmaceuticals Ltd,PLASMA,LC-MS/MS,,1,176,2020-03-06T15H30,176,,8H,8,PT8H,Day 1 Dosing,
20214751,PC,20214751-233,398,C5A,ACT-1014-6470,ANALYTE,448,ng/mL,448,448,ng/mL,,Idorsia Pharmaceuticals Ltd,PLASMA,LC-MS/MS,,1,176,2020-03-06T15H30,176,,8H,8,PT8H,Day 1 Dosing,
20214751,PC,20214751-234,399,C5A,ACT-1014-6470,ANALYTE,3380,ng/mL,3380,3380,ng/mL,,Idorsia Pharmaceuticals Ltd,PLASMA,LC-MS/MS,,1,176,2020-03-06T15H30,176,,8H,8,PT8H,Day 1 Dosing,
20214751,PC,20214751-235,400,C5A,ACT-1014-6470,ANALYTE,413,ng/mL,413,413,ng/mL,,Idorsia Pharmaceuticals Ltd,PLASMA,LC-MS/MS,,1,176,2020-03-06T15H30,176,,8H,8,PT8H,Day 1 Dosing,
20214751,PC,20214751-239,401,C5A,ACT-1014-6470,ANALYTE,3110,ng/mL,3110,3110,ng/mL,,Idorsia Pharmaceuticals Ltd,PLASMA,LC-MS/MS,,1,176,2020-03-06T15H30,176,,8H,8,PT8H,Day 1 Dosing,
20214751,PC,20214751-240,402,C5A,ACT-1014-6470,ANALYTE,2740,ng/mL,2740,2740,ng/mL,,Idorsia Pharmaceuticals Ltd,PLASMA,LC-MS/MS,,1,176,2020-03-06T15H30,176,,8H,8,PT8H,Day 1 Dosing,
20214751,PC,20214751-241,403,C5A,ACT-1014-6470,ANALYTE,1930,ng/mL,1930,1930,ng/mL,,Idorsia Pharmaceuticals Ltd,PLASMA,LC-MS/MS,,1,176,2020-03-06T15H30,176,,8H,8,PT8H,Day 1 Dosing,
20214751,PC,20214751-245,404,C5A,ACT-1014-6470,ANALYTE,438,ng/mL,438,438,ng/mL,,Idorsia Pharmaceuticals Ltd,PLASMA,LC-MS/MS,,1,176,2020-03-06T15H30,176,,8H,8,PT8H,Day 1 Dosing,
20214751,PC,20214751-246,405,C5A,ACT-1014-6470,ANALYTE,397,ng/mL,397,397,ng/mL,,Idorsia Pharmaceuticals Ltd,PLASMA,LC-MS/MS,,1,176,2020-03-06T15H30,176,,8H,8,PT8H,Day 1 Dosing,
20214751,PC,20214751-247,406,C5A,ACT-1014-6470,ANALYTE,1530,ng/mL,1530,1530,ng/mL,,Idorsia Pharmaceuticals Ltd,PLASMA,LC-MS/MS,,1,176,2020-03-06T15H30,176,,8H,8,PT8H,Day 1 Dosing,
20214751,PC,20214751-251,407,C5A,ACT-1014-6470,ANALYTE,4270,ng/mL,4270,4270,ng/mL,,Idorsia Pharmaceuticals Ltd,PLASMA,LC-MS/MS,,1,176,2020-03-06T15H30,176,,8H,8,PT8H,Day 1 Dosing,
20214751,PC,20214751-252,408,C5A,ACT-1014-6470,ANALYTE,363,ng/mL,363,363,ng/mL,,Idorsia Pharmaceuticals Ltd,PLASMA,LC-MS/MS,,1,176,2020-03-06T15H30,176,,8H,8,PT8H,Day 1 Dosing,
20214751,PC,20214751-253,409,C5A,ACT-1014-6470,ANALYTE,3240,ng/mL,3240,3240,ng/mL,,Idorsia Pharmaceuticals Ltd,PLASMA,LC-MS/MS,,1,176,2020-03-06T15H30,176,,8H,8,PT8H,Day 1 Dosing,
20214751,PC,20214751-212,410,C5A,ACT-1014-6470,ANALYTE,BLQ,ng/mL,BLQ,,,BELOW DETECTION LIMIT,Idorsia Pharmaceuticals Ltd,PLASMA,LC-MS/MS,,1,176,2020-03-07T07H30,176,,24H,24,PT24H,Day 1 Dosing,
20214751,PC,20214751-213,411,C5A,ACT-1014-6470,ANALYTE,BLQ,ng/mL,BLQ,,,BELOW DETECTION LIMIT,Idorsia Pharmaceuticals Ltd,PLASMA,LC-MS/MS,,1,176,2020-03-07T07H30,176,,24H,24,PT24H,Day 1 Dosing,
20214751,PC,20214751-214,412,C5A,ACT-1014-6470,ANALYTE,BLQ,ng/mL,BLQ,,,BELOW DETECTION LIMIT,Idorsia Pharmaceuticals Ltd,PLASMA,LC-MS/MS,,1,176,2020-03-07T07H30,176,,24H,24,PT24H,Day 1 Dosing,
20214751,PC,20214751-218,413,C5A,ACT-1014-6470,ANALYTE,BLQ,ng/mL,BLQ,,,BELOW DETECTION LIMIT,Idorsia Pharmaceuticals Ltd,PLASMA,LC-MS/MS,,1,176,2020-03-07T07H30,176,,24H,24,PT24H,Day 1 Dosing,
20214751,PC,20214751-219,414,C5A,ACT-1014-6470,ANALYTE,BLQ,ng/mL,BLQ,,,BELOW DETECTION LIMIT,Idorsia Pharmaceuticals Ltd,PLASMA,LC-MS/MS,,1,176,2020-03-07T07H30,176,,24H,24,PT24H,Day 1 Dosing,
20214751,PC,20214751-220,415,C5A,ACT-1014-6470,ANALYTE,BLQ,ng/mL,BLQ,,,BELOW DETECTION LIMIT,Idorsia Pharmaceuticals Ltd,PLASMA,LC-MS/MS,,1,176,2020-03-07T07H30,176,,24H,24,PT24H,Day 1 Dosing,
20214751,PC,20214751-224,416,C5A,ACT-1014-6470,ANALYTE,68.6,ng/mL,68.6,68.6,ng/mL,,Idorsia Pharmaceuticals Ltd,PLASMA,LC-MS/MS,,1,176,2020-03-07T07H30,176,,24H,24,PT24H,Day 1 Dosing,
20214751,PC,20214751-225,417,C5A,ACT-1014-6470,ANALYTE,19.3,ng/mL,19.3,19.3,ng/mL,,Idorsia Pharmaceuticals Ltd,PLASMA,LC-MS/MS,,1,176,2020-03-07T07H30,176,,24H,24,PT24H,Day 1 Dosing,
20214751,PC,20214751-226,418,C5A,ACT-1014-6470,ANALYTE,15.6,ng/mL,15.6,15.6,ng/mL,,Idorsia Pharmaceuticals Ltd,PLASMA,LC-MS/MS,,1,176,2020-03-07T07H30,176,,24H,24,PT24H,Day 1 Dosing,
20214751,PC,20214751-230,419,C5A,ACT-1014-6470,ANALYTE,11.1,ng/mL,11.1,11.1,ng/mL,,Idorsia Pharmaceuticals Ltd,PLASMA,LC-MS/MS,,1,176,2020-03-07T07H30,176,,24H,24,PT24H,Day 1 Dosing,
20214751,PC,20214751-231,420,C5A,ACT-1014-6470,ANALYTE,29.5,ng/mL,29.5,29.5,ng/mL,,Idorsia Pharmaceuticals Ltd,PLASMA,LC-MS/MS,,1,176,2020-03-07T07H30,176,,24H,24,PT24H,Day 1 Dosing,
20214751,PC,20214751-232,421,C5A,ACT-1014-6470,ANALYTE,137,ng/mL,137,137,ng/mL,,Idorsia Pharmaceuticals Ltd,PLASMA,LC-MS/MS,,1,176,2020-03-07T07H30,176,,24H,24,PT24H,Day 1 Dosing,
20214751,PC,20214751-235,422,C5A,ACT-1014-6470,ANALYTE,80.9,ng/mL,80.9,80.9,ng/mL,,Idorsia Pharmaceuticals Ltd,PLASMA,LC-MS/MS,,1,176,2020-03-07T07H30,176,,24H,24,PT24H,Day 1 Dosing,
20214751,PC,20214751-237,423,C5A,ACT-1014-6470,ANALYTE,674,ng/mL,674,674,ng/mL,,Idorsia Pharmaceuticals Ltd,PLASMA,LC-MS/MS,,1,176,2020-03-07T07H30,176,,24H,24,PT24H,Day 1 Dosing,
20214751,PC,20214751-238,424,C5A,ACT-1014-6470,ANALYTE,85.4,ng/mL,85.4,85.4,ng/mL,,Idorsia Pharmaceuticals Ltd,PLASMA,LC-MS/MS,,1,176,2020-03-07T07H30,176,,24H,24,PT24H,Day 1 Dosing,
20214751,PC,20214751-242,425,C5A,ACT-1014-6470,ANALYTE,92.1,ng/mL,92.1,92.1,ng/mL,,Idorsia Pharmaceuticals Ltd,PLASMA,LC-MS/MS,,1,176,2020-03-07T07H30,176,,24H,24,PT24H,Day 1 Dosing,
20214751,PC,20214751-243,426,C5A,ACT-1014-6470,ANALYTE,187,ng/mL,187,187,ng/mL,,Idorsia Pharmaceuticals Ltd,PLASMA,LC-MS/MS,,1,176,2020-03-07T07H30,176,,24H,24,PT24H,Day 1 Dosing,
20214751,PC,20214751-244,427,C5A,ACT-1014-6470,ANALYTE,940,ng/mL,940,940,ng/mL,,Idorsia Pharmaceuticals Ltd,PLASMA,LC-MS/MS,,1,176,2020-03-07T07H30,176,,24H,24,PT24H,Day 1 Dosing,
20214751,PC,20214751-248,428,C5A,ACT-1014-6470,ANALYTE,54.8,ng/mL,54.8,54.8,ng/mL,,Idorsia Pharmaceuticals Ltd,PLASMA,LC-MS/MS,,1,176,2020-03-07T07H30,176,,24H,24,PT24H,Day 1 Dosing,
20214751,PC,20214751-249,429,C5A,ACT-1014-6470,ANALYTE,69.1,ng/mL,69.1,69.1,ng/mL,,Idorsia Pharmaceuticals Ltd,PLASMA,LC-MS/MS,,1,176,2020-03-07T07H30,176,,24H,24,PT24H,Day 1 Dosing,
20214751,PC,20214751-250,430,C5A,ACT-1014-6470,ANALYTE,523,ng/mL,523,523,ng/mL,,Idorsia Pharmaceuticals Ltd,PLASMA,LC-MS/MS,,1,176,2020-03-07T07H30,176,,24H,24,PT24H,Day 1 Dosing,
20214751,PC,20214751-254,431,C5A,ACT-1014-6470,ANALYTE,152,ng/mL,152,152,ng/mL,,Idorsia Pharmaceuticals Ltd,PLASMA,LC-MS/MS,,1,176,2020-03-07T07H30,176,,24H,24,PT24H,Day 1 Dosing,
20214751,PC,20214751-255,432,C5A,ACT-1014-6470,ANALYTE,91.9,ng/mL,91.9,91.9,ng/mL,,Idorsia Pharmaceuticals Ltd,PLASMA,LC-MS/MS,,1,176,2020-03-07T07H30,176,,24H,24,PT24H,Day 1 Dosing,
20214751,PC,20214751-256,433,C5A,ACT-1014-6470,ANALYTE,57.8,ng/mL,57.8,57.8,ng/mL,,Idorsia Pharmaceuticals Ltd,PLASMA,LC-MS/MS,,1,176,2020-03-07T07H30,176,,24H,24,PT24H,Day 1 Dosing,
20214751,PC,20214751-21,434,C5A,ACT-1014-6470,ANALYTE,BLQ,ng/mL,BLQ,,,BELOW DETECTION LIMIT,Idorsia Pharmaceuticals Ltd,PLASMA,LC-MS/MS,,1,193,2020-03-23T07H30,193,,,,,Day 1 Dosing,
20214751,PC,20214751-22,435,C5A,ACT-1014-6470,ANALYTE,BLQ,ng/mL,BLQ,,,BELOW DETECTION LIMIT,Idorsia Pharmaceuticals Ltd,PLASMA,LC-MS/MS,,1,193,2020-03-23T07H30,193,,,,,Day 1 Dosing,
20214751,PC,20214751-23,436,C5A,ACT-1014-6470,ANALYTE,BLQ,ng/mL,BLQ,,,BELOW DETECTION LIMIT,Idorsia Pharmaceuticals Ltd,PLASMA,LC-MS/MS,,1,193,2020-03-23T07H30,193,,,,,Day 1 Dosing,
20214751,PC,20214751-47,437,C5A,ACT-1014-6470,ANALYTE,BLQ,ng/mL,BLQ,,,BELOW DETECTION LIMIT,Idorsia Pharmaceuticals Ltd,PLASMA,LC-MS/MS,,1,193,2020-03-23T07H30,193,,,,,Day 1 Dosing,
20214751,PC,20214751-48,438,C5A,ACT-1014-6470,ANALYTE,BLQ,ng/mL,BLQ,,,BELOW DETECTION LIMIT,Idorsia Pharmaceuticals Ltd,PLASMA,LC-MS/MS,,1,193,2020-03-23T07H30,193,,,,,Day 1 Dosing,
20214751,PC,20214751-50,439,C5A,ACT-1014-6470,ANALYTE,BLQ,ng/mL,BLQ,,,BELOW DETECTION LIMIT,Idorsia Pharmaceuticals Ltd,PLASMA,LC-MS/MS,,1,193,2020-03-23T07H30,193,,,,,Day 1 Dosing,
20214751,PC,20214751-73,440,C5A,ACT-1014-6470,ANALYTE,71.8,ng/mL,71.8,71.8,ng/mL,,Idorsia Pharmaceuticals Ltd,PLASMA,LC-MS/MS,,1,193,2020-03-23T07H30,193,,,,,Day 1 Dosing,
20214751,PC,20214751-74,441,C5A,ACT-1014-6470,ANALYTE,12.3,ng/mL,12.3,12.3,ng/mL,,Idorsia Pharmaceuticals Ltd,PLASMA,LC-MS/MS,,1,193,2020-03-23T07H30,193,,,,,Day 1 Dosing,
20214751,PC,20214751-75,442,C5A,ACT-1014-6470,ANALYTE,17,ng/mL,17,17,ng/mL,,Idorsia Pharmaceuticals Ltd,PLASMA,LC-MS/MS,,1,193,2020-03-23T07H30,193,,,,,Day 1 Dosing,
20214751,PC,20214751-99,443,C5A,ACT-1014-6470,ANALYTE,14.8,ng/mL,14.8,14.8,ng/mL,,Idorsia Pharmaceuticals Ltd,PLASMA,LC-MS/MS,,1,193,2020-03-23T07H30,193,,,,,Day 1 Dosing,
20214751,PC,20214751-100,444,C5A,ACT-1014-6470,ANALYTE,3.21,ng/mL,3.21,3.21,ng/mL,,Idorsia Pharmaceuticals Ltd,PLASMA,LC-MS/MS,,1,193,2020-03-23T07H30,193,,,,,Day 1 Dosing,
20214751,PC,20214751-101,445,C5A,ACT-1014-6470,ANALYTE,9.33,ng/mL,9.33,9.33,ng/mL,,Idorsia Pharmaceuticals Ltd,PLASMA,LC-MS/MS,,1,193,2020-03-23T07H30,193,,,,,Day 1 Dosing,
20214751,PC,20214751-128,446,C5A,ACT-1014-6470,ANALYTE,87.9,ng/mL,87.9,87.9,ng/mL,,Idorsia Pharmaceuticals Ltd,PLASMA,LC-MS/MS,,1,193,2020-03-23T07H30,193,,,,,Day 1 Dosing,
20214751,PC,20214751-126,447,C5A,ACT-1014-6470,ANALYTE,27.8,ng/mL,27.8,27.8,ng/mL,,Idorsia Pharmaceuticals Ltd,PLASMA,LC-MS/MS,,1,193,2020-03-23T07H30,193,,,,,Day 1 Dosing,
20214751,PC,20214751-127,448,C5A,ACT-1014-6470,ANALYTE,61.4,ng/mL,61.4,61.4,ng/mL,,Idorsia Pharmaceuticals Ltd,PLASMA,LC-MS/MS,,1,193,2020-03-23T07H30,193,,,,,Day 1 Dosing,
20214751,PC,20214751-154,449,C5A,ACT-1014-6470,ANALYTE,344,ng/mL,344,344,ng/mL,,Idorsia Pharmaceuticals Ltd,PLASMA,LC-MS/MS,,1,193,2020-03-23T07H30,193,,,,,Day 1 Dosing,
20214751,PC,20214751-152,450,C5A,ACT-1014-6470,ANALYTE,198,ng/mL,198,198,ng/mL,,Idorsia Pharmaceuticals Ltd,PLASMA,LC-MS/MS,,1,193,2020-03-23T07H30,193,,,,,Day 1 Dosing,
20214751,PC,20214751-153,451,C5A,ACT-1014-6470,ANALYTE,15.5,ng/mL,15.5,15.5,ng/mL,,Idorsia Pharmaceuticals Ltd,PLASMA,LC-MS/MS,,1,193,2020-03-23T07H30,193,,,,,Day 1 Dosing,
20214751,PC,20214751-177,452,C5A,ACT-1014-6470,ANALYTE,35.2,ng/mL,35.2,35.2,ng/mL,,Idorsia Pharmaceuticals Ltd,PLASMA,LC-MS/MS,,1,193,2020-03-23T07H30,193,,,,,Day 1 Dosing,
20214751,PC,20214751-178,453,C5A,ACT-1014-6470,ANALYTE,41.4,ng/mL,41.4,41.4,ng/mL,,Idorsia Pharmaceuticals Ltd,PLASMA,LC-MS/MS,,1,193,2020-03-23T07H30,193,,,,,Day 1 Dosing,
20214751,PC,20214751-179,454,C5A,ACT-1014-6470,ANALYTE,554,ng/mL,554,554,ng/mL,,Idorsia Pharmaceuticals Ltd,PLASMA,LC-MS/MS,,1,193,2020-03-23T07H30,193,,,,,Day 1 Dosing,
20214751,PC,20214751-203,455,C5A,ACT-1014-6470,ANALYTE,585,ng/mL,585,585,ng/mL,,Idorsia Pharmaceuticals Ltd,PLASMA,LC-MS/MS,,1,193,2020-03-23T07H30,193,,,,,Day 1 Dosing,
20214751,PC,20214751-204,456,C5A,ACT-1014-6470,ANALYTE,81.2,ng/mL,81.2,81.2,ng/mL,,Idorsia Pharmaceuticals Ltd,PLASMA,LC-MS/MS,,1,193,2020-03-23T07H30,193,,,,,Day 1 Dosing,
20214751,PC,20214751-205,457,C5A,ACT-1014-6470,ANALYTE,33.1,ng/mL,33.1,33.1,ng/mL,,Idorsia Pharmaceuticals Ltd,PLASMA,LC-MS/MS,,1,193,2020-03-23T07H30,193,,,,,Day 1 Dosing,
20214751,PC,20214751-324,458,C5A,ACT-1014-6470,ANALYTE,BLQ,ng/mL,BLQ,,,BELOW DETECTION LIMIT,Idorsia Pharmaceuticals Ltd,PLASMA,LC-MS/MS,,1,207,2020-04-06T07H30,207,,,,,Day 1 Dosing,
20214751,PC,20214751-25,459,C5A,ACT-1014-6470,ANALYTE,BLQ,ng/mL,BLQ,,,BELOW DETECTION LIMIT,Idorsia Pharmaceuticals Ltd,PLASMA,LC-MS/MS,,1,207,2020-04-06T07H30,207,,,,,Day 1 Dosing,
20214751,PC,20214751-26,460,C5A,ACT-1014-6470,ANALYTE,BLQ,ng/mL,BLQ,,,BELOW DETECTION LIMIT,Idorsia Pharmaceuticals Ltd,PLASMA,LC-MS/MS,,1,207,2020-04-06T07H30,207,,,,,Day 1 Dosing,
20214751,PC,20214751-50,461,C5A,ACT-1014-6470,ANALYTE,BLQ,ng/mL,BLQ,,,BELOW DETECTION LIMIT,Idorsia Pharmaceuticals Ltd,PLASMA,LC-MS/MS,,1,207,2020-04-06T07H30,207,,,,,Day 1 Dosing,
20214751,PC,20214751-51,462,C5A,ACT-1014-6470,ANALYTE,BLQ,ng/mL,BLQ,,,BELOW DETECTION LIMIT,Idorsia Pharmaceuticals Ltd,PLASMA,LC-MS/MS,,1,207,2020-04-06T07H30,207,,,,,Day 1 Dosing,
20214751,PC,20214751-52,463,C5A,ACT-1014-6470,ANALYTE,BLQ,ng/mL,BLQ,,,BELOW DETECTION LIMIT,Idorsia Pharmaceuticals Ltd,PLASMA,LC-MS/MS,,1,207,2020-04-06T07H30,207,,,,,Day 1 Dosing,
20214751,PC,20214751-76,464,C5A,ACT-1014-6470,ANALYTE,103,ng/mL,103,103,ng/mL,,Idorsia Pharmaceuticals Ltd,PLASMA,LC-MS/MS,,1,207,2020-04-06T07H30,207,,,,,Day 1 Dosing,
20214751,PC,20214751-77,465,C5A,ACT-1014-6470,ANALYTE,43.1,ng/mL,43.1,43.1,ng/mL,,Idorsia Pharmaceuticals Ltd,PLASMA,LC-MS/MS,,1,207,2020-04-06T07H30,207,,,,,Day 1 Dosing,
20214751,PC,20214751-78,466,C5A,ACT-1014-6470,ANALYTE,37.4,ng/mL,37.4,37.4,ng/mL,,Idorsia Pharmaceuticals Ltd,PLASMA,LC-MS/MS,,1,207,2020-04-06T07H30,207,,,,,Day 1 Dosing,
20214751,PC,20214751-102,467,C5A,ACT-1014-6470,ANALYTE,3.52,ng/mL,3.52,3.52,ng/mL,,Idorsia Pharmaceuticals Ltd,PLASMA,LC-MS/MS,,1,207,2020-04-06T07H30,207,,,,,Day 1 Dosing,
20214751,PC,20214751-103,468,C5A,ACT-1014-6470,ANALYTE,6.56,ng/mL,6.56,6.56,ng/mL,,Idorsia Pharmaceuticals Ltd,PLASMA,LC-MS/MS,,1,207,2020-04-06T07H30,207,,,,,Day 1 Dosing,
20214751,PC,20214751-104,469,C5A,ACT-1014-6470,ANALYTE,7.25,ng/mL,7.25,7.25,ng/mL,,Idorsia Pharmaceuticals Ltd,PLASMA,LC-MS/MS,,1,207,2020-04-06T07H30,207,,,,,Day 1 Dosing,
20214751,PC,20214751-128,470,C5A,ACT-1014-6470,ANALYTE,67.5,ng/mL,67.5,67.5,ng/mL,,Idorsia Pharmaceuticals Ltd,PLASMA,LC-MS/MS,,1,207,2020-04-06T07H30,207,,,,,Day 1 Dosing,
20214751,PC,20214751-129,471,C5A,ACT-1014-6470,ANALYTE,31.1,ng/mL,31.1,31.1,ng/mL,,Idorsia Pharmaceuticals Ltd,PLASMA,LC-MS/MS,,1,207,2020-04-06T07H30,207,,,,,Day 1 Dosing,
20214751,PC,20214751-130,472,C5A,ACT-1014-6470,ANALYTE,57.5,ng/mL,57.5,57.5,ng/mL,,Idorsia Pharmaceuticals Ltd,PLASMA,LC-MS/MS,,1,207,2020-04-06T07H30,207,,,,,Day 1 Dosing,
20214751,PC,20214751-154,473,C5A,ACT-1014-6470,ANALYTE,206,ng/mL,206,206,ng/mL,,Idorsia Pharmaceuticals Ltd,PLASMA,LC-MS/MS,,1,207,2020-04-06T07H30,207,,,,,Day 1 Dosing,
20214751,PC,20214751-155,474,C5A,ACT-1014-6470,ANALYTE,344,ng/mL,344,344,ng/mL,,Idorsia Pharmaceuticals Ltd,PLASMA,LC-MS/MS,,1,207,2020-04-06T07H30,207,,,,,Day 1 Dosing,
20214751,PC,20214751-156,475,C5A,ACT-1014-6470,ANALYTE,730,ng/mL,730,730,ng/mL,,Idorsia Pharmaceuticals Ltd,PLASMA,LC-MS/MS,,1,207,2020-04-06T07H30,207,,,,,Day 1 Dosing,
20214751,PC,20214751-180,476,C5A,ACT-1014-6470,ANALYTE,55,ng/mL,55,55,ng/mL,,Idorsia Pharmaceuticals Ltd,PLASMA,LC-MS/MS,,1,207,2020-04-06T07H30,207,,,,,Day 1 Dosing,
20214751,PC,20214751-181,477,C5A,ACT-1014-6470,ANALYTE,28.5,ng/mL,28.5,28.5,ng/mL,,Idorsia Pharmaceuticals Ltd,PLASMA,LC-MS/MS,,1,207,2020-04-06T07H30,207,,,,,Day 1 Dosing,
20214751,PC,20214751-182,478,C5A,ACT-1014-6470,ANALYTE,36,ng/mL,36,36,ng/mL,,Idorsia Pharmaceuticals Ltd,PLASMA,LC-MS/MS,,1,207,2020-04-06T07H30,207,,,,,Day 1 Dosing,
20214751,PC,20214751-206,479,C5A,ACT-1014-6470,ANALYTE,246,ng/mL,246,246,ng/mL,,Idorsia Pharmaceuticals Ltd,PLASMA,LC-MS/MS,,1,207,2020-04-06T07H30,207,,,,,Day 1 Dosing,
20214751,PC,20214751-207,480,C5A,ACT-1014-6470,ANALYTE,11,ng/mL,11,11,ng/mL,,Idorsia Pharmaceuticals Ltd,PLASMA,LC-MS/MS,,1,207,2020-04-06T07H30,207,,,,,Day 1 Dosing,
20214751,PC,20214751-208,481,C5A,ACT-1014-6470,ANALYTE,40.1,ng/mL,40.1,40.1,ng/mL,,Idorsia Pharmaceuticals Ltd,PLASMA,LC-MS/MS,,1,207,2020-04-06T07H30,207,,,,,Day 1 Dosing,
20214751,PC,20214751-21,482,C5A,ACT-1014-6470,ANALYTE,BLQ,ng/mL,BLQ,,,BELOW DETECTION LIMIT,Idorsia Pharmaceuticals Ltd,PLASMA,LC-MS/MS,,1,221,2020-04-20T07H30,221,,,,,Day 1 Dosing,
20214751,PC,20214751-22,483,C5A,ACT-1014-6470,ANALYTE,BLQ,ng/mL,BLQ,,,BELOW DETECTION LIMIT,Idorsia Pharmaceuticals Ltd,PLASMA,LC-MS/MS,,1,221,2020-04-20T07H30,221,,,,,Day 1 Dosing,
20214751,PC,20214751-23,484,C5A,ACT-1014-6470,ANALYTE,BLQ,ng/mL,BLQ,,,BELOW DETECTION LIMIT,Idorsia Pharmaceuticals Ltd,PLASMA,LC-MS/MS,,1,221,2020-04-20T07H30,221,,,,,Day 1 Dosing,
20214751,PC,20214751-47,485,C5A,ACT-1014-6470,ANALYTE,BLQ,ng/mL,BLQ,,,BELOW DETECTION LIMIT,Idorsia Pharmaceuticals Ltd,PLASMA,LC-MS/MS,,1,221,2020-04-20T07H30,221,,,,,Day 1 Dosing,
20214751,PC,20214751-48,486,C5A,ACT-1014-6470,ANALYTE,BLQ,ng/mL,BLQ,,,BELOW DETECTION LIMIT,Idorsia Pharmaceuticals Ltd,PLASMA,LC-MS/MS,,1,221,2020-04-20T07H30,221,,,,,Day 1 Dosing,
20214751,PC,20214751-50,487,C5A,ACT-1014-6470,ANALYTE,BLQ,ng/mL,BLQ,,,BELOW DETECTION LIMIT,Idorsia Pharmaceuticals Ltd,PLASMA,LC-MS/MS,,1,221,2020-04-20T07H30,221,,,,,Day 1 Dosing,
20214751,PC,20214751-73,488,C5A,ACT-1014-6470,ANALYTE,32.4,ng/mL,32.4,32.4,ng/mL,,Idorsia Pharmaceuticals Ltd,PLASMA,LC-MS/MS,,1,221,2020-04-20T07H30,221,,,,,Day 1 Dosing,
20214751,PC,20214751-74,489,C5A,ACT-1014-6470,ANALYTE,10.2,ng/mL,10.2,10.2,ng/mL,,Idorsia Pharmaceuticals Ltd,PLASMA,LC-MS/MS,,1,221,2020-04-20T07H30,221,,,,,Day 1 Dosing,
20214751,PC,20214751-75,490,C5A,ACT-1014-6470,ANALYTE,7.87,ng/mL,7.87,7.87,ng/mL,,Idorsia Pharmaceuticals Ltd,PLASMA,LC-MS/MS,,1,221,2020-04-20T07H30,221,,,,,Day 1 Dosing,
20214751,PC,20214751-99,491,C5A,ACT-1014-6470,ANALYTE,5.44,ng/mL,5.44,5.44,ng/mL,,Idorsia Pharmaceuticals Ltd,PLASMA,LC-MS/MS,,1,221,2020-04-20T07H30,221,,,,,Day 1 Dosing,
20214751,PC,20214751-100,492,C5A,ACT-1014-6470,ANALYTE,1.49,ng/mL,1.49,1.49,ng/mL,,Idorsia Pharmaceuticals Ltd,PLASMA,LC-MS/MS,,1,221,2020-04-20T07H30,221,,,,,Day 1 Dosing,
20214751,PC,20214751-101,493,C5A,ACT-1014-6470,ANALYTE,4.98,ng/mL,4.98,4.98,ng/mL,,Idorsia Pharmaceuticals Ltd,PLASMA,LC-MS/MS,,1,221,2020-04-20T07H30,221,,,,,Day 1 Dosing,
20214751,PC,20214751-128,494,C5A,ACT-1014-6470,ANALYTE,38.1,ng/mL,38.1,38.1,ng/mL,,Idorsia Pharmaceuticals Ltd,PLASMA,LC-MS/MS,,1,221,2020-04-20T07H30,221,,,,,Day 1 Dosing,
20214751,PC,20214751-126,495,C5A,ACT-1014-6470,ANALYTE,12.6,ng/mL,12.6,12.6,ng/mL,,Idorsia Pharmaceuticals Ltd,PLASMA,LC-MS/MS,,1,221,2020-04-20T07H30,221,,,,,Day 1 Dosing,
20214751,PC,20214751-127,496,C5A,ACT-1014-6470,ANALYTE,27,ng/mL,27,27,ng/mL,,Idorsia Pharmaceuticals Ltd,PLASMA,LC-MS/MS,,1,221,2020-04-20T07H30,221,,,,,Day 1 Dosing,
20214751,PC,20214751-154,497,C5A,ACT-1014-6470,ANALYTE,151,ng/mL,151,151,ng/mL,,Idorsia Pharmaceuticals Ltd,PLASMA,LC-MS/MS,,1,221,2020-04-20T07H30,221,,,,,Day 1 Dosing,
20214751,PC,20214751-152,498,C5A,ACT-1014-6470,ANALYTE,171,ng/mL,171,171,ng/mL,,Idorsia Pharmaceuticals Ltd,PLASMA,LC-MS/MS,,1,221,2020-04-20T07H30,221,,,,,Day 1 Dosing,
20214751,PC,20214751-153,499,C5A,ACT-1014-6470,ANALYTE,5.38,ng/mL,5.38,5.38,ng/mL,,Idorsia Pharmaceuticals Ltd,PLASMA,LC-MS/MS,,1,221,2020-04-20T07H30,221,,,,,Day 1 Dosing,
20214751,PC,20214751-178,501,C5A,ACT-1014-6470,ANALYTE,23.9,ng/mL,23.9,23.9,ng/mL,,Idorsia Pharmaceuticals Ltd,PLASMA,LC-MS/MS,,1,221,2020-04-20T07H30,221,,,,,Day 1 Dosing,
20214751,PC,20214751-179,502,C5A,ACT-1014-6470,ANALYTE,338,ng/mL,338,338,ng/mL,,Idorsia Pharmaceuticals Ltd,PLASMA,LC-MS/MS,,1,221,2020-04-20T07H30,221,,,,,Day 1 Dosing,
20214751,PC,20214751-203,503,C5A,ACT-1014-6470,ANALYTE,309,ng/mL,309,309,ng/mL,,Idorsia Pharmaceuticals Ltd,PLASMA,LC-MS/MS,,1,221,2020-04-20T07H30,221,,,,,Day 1 Dosing,
20214751,PC,20214751-204,504,C5A,ACT-1014-6470,ANALYTE,35.8,ng/mL,35.8,35.8,ng/mL,,Idorsia Pharmaceuticals Ltd,PLASMA,LC-MS/MS,,1,221,2020-04-20T07H30,221,,,,,Day 1 Dosing,
20214751,PC,20214751-205,505,C5A,ACT-1014-6470,ANALYTE,8.67,ng/mL,8.67,8.67,ng/mL,,Idorsia Pharmaceuticals Ltd,PLASMA,LC-MS/MS,,1,221,2020-04-20T07H30,221,,,,,Day 1 Dosing,
20214751,PC,20214751-324,506,C5A,ACT-1014-6470,ANALYTE,BLQ,ng/mL,BLQ,,,BELOW DETECTION LIMIT,Idorsia Pharmaceuticals Ltd,PLASMA,LC-MS/MS,,1,235,2020-04-20T07H30,235,,,,,Day 1 Dosing,
20214751,PC,20214751-25,507,C5A,ACT-1014-6470,ANALYTE,BLQ,ng/mL,BLQ,,,BELOW DETECTION LIMIT,Idorsia Pharmaceuticals Ltd,PLASMA,LC-MS/MS,,1,235,2020-05-04T07H30,235,,,,,Day 1 Dosing,
20214751,PC,20214751-26,508,C5A,ACT-1014-6470,ANALYTE,BLQ,ng/mL,BLQ,,,BELOW DETECTION LIMIT,Idorsia Pharmaceuticals Ltd,PLASMA,LC-MS/MS,,1,235,2020-05-04T07H30,235,,,,,Day 1 Dosing,
20214751,PC,20214751-50,509,C5A,ACT-1014-6470,ANALYTE,BLQ,ng/mL,BLQ,,,BELOW DETECTION LIMIT,Idorsia Pharmaceuticals Ltd,PLASMA,LC-MS/MS,,1,235,2020-05-04T07H30,235,,,,,Day 1 Dosing,
20214751,PC,20214751-51,510,C5A,ACT-1014-6470,ANALYTE,BLQ,ng/mL,BLQ,,,BELOW DETECTION LIMIT,Idorsia Pharmaceuticals Ltd,PLASMA,LC-MS/MS,,1,235,2020-05-04T07H30,235,,,,,Day 1 Dosing,
20214751,PC,20214751-52,511,C5A,ACT-1014-6470,ANALYTE,BLQ,ng/mL,BLQ,,,BELOW DETECTION LIMIT,Idorsia Pharmaceuticals Ltd,PLASMA,LC-MS/MS,,1,235,2020-05-04T07H30,235,,,,,Day 1 Dosing,
20214751,PC,20214751-76,512,C5A,ACT-1014-6470,ANALYTE,63.7,ng/mL,63.7,63.7,ng/mL,,Idorsia Pharmaceuticals Ltd,PLASMA,LC-MS/MS,,1,235,2020-05-04T07H30,235,,,,,Day 1 Dosing,
20214751,PC,20214751-77,513,C5A,ACT-1014-6470,ANALYTE,21.1,ng/mL,21.1,21.1,ng/mL,,Idorsia Pharmaceuticals Ltd,PLASMA,LC-MS/MS,,1,235,2020-05-04T07H30,235,,,,,Day 1 Dosing,
20214751,PC,20214751-78,514,C5A,ACT-1014-6470,ANALYTE,23.7,ng/mL,23.7,23.7,ng/mL,,Idorsia Pharmaceuticals Ltd,PLASMA,LC-MS/MS,,1,235,2020-05-04T07H30,235,,,,,Day 1 Dosing,
20214751,PC,20214751-102,515,C5A,ACT-1014-6470,ANALYTE,2.52,ng/mL,2.52,2.52,ng/mL,,Idorsia Pharmaceuticals Ltd,PLASMA,LC-MS/MS,,1,235,2020-05-04T07H30,235,,,,,Day 1 Dosing,
20214751,PC,20214751-103,516,C5A,ACT-1014-6470,ANALYTE,3.78,ng/mL,3.78,3.78,ng/mL,,Idorsia Pharmaceuticals Ltd,PLASMA,LC-MS/MS,,1,235,2020-05-04T07H30,235,,,,,Day 1 Dosing,
20214751,PC,20214751-104,517,C5A,ACT-1014-6470,ANALYTE,2.73,ng/mL,2.73,2.73,ng/mL,,Idorsia Pharmaceuticals Ltd,PLASMA,LC-MS/MS,,1,235,2020-05-04T07H30,235,,,,,Day 1 Dosing,
20214751,PC,20214751-128,518,C5A,ACT-1014-6470,ANALYTE,35.6,ng/mL,35.6,35.6,ng/mL,,Idorsia Pharmaceuticals Ltd,PLASMA,LC-MS/MS,,1,235,2020-05-04T07H30,235,,,,,Day 1 Dosing,
20214751,PC,20214751-129,519,C5A,ACT-1014-6470,ANALYTE,16.8,ng/mL,16.8,16.8,ng/mL,,Idorsia Pharmaceuticals Ltd,PLASMA,LC-MS/MS,,1,235,2020-05-04T07H30,235,,,,,Day 1 Dosing,
20214751,PC,20214751-130,520,C5A,ACT-1014-6470,ANALYTE,23,ng/mL,23,23,ng/mL,,Idorsia Pharmaceuticals Ltd,PLASMA,LC-MS/MS,,1,235,2020-05-04T07H30,235,,,,,Day 1 Dosing,
20214751,PC,20214751-154,521,C5A,ACT-1014-6470,ANALYTE,91.1,ng/mL,91.1,91.1,ng/mL,,Idorsia Pharmaceuticals Ltd,PLASMA,LC-MS/MS,,1,235,2020-05-04T07H30,235,,,,,Day 1 Dosing,
20214751,PC,20214751-155,522,C5A,ACT-1014-6470,ANALYTE,196,ng/mL,196,196,ng/mL,,Idorsia Pharmaceuticals Ltd,PLASMA,LC-MS/MS,,1,235,2020-05-04T07H30,235,,,,,Day 1 Dosing,
20214751,PC,20214751-156,523,C5A,ACT-1014-6470,ANALYTE,438,ng/mL,438,438,ng/mL,,Idorsia Pharmaceuticals Ltd,PLASMA,LC-MS/MS,,1,235,2020-05-04T07H30,235,,,,,Day 1 Dosing,
20214751,PC,20214751-180,524,C5A,ACT-1014-6470,ANALYTE,28,ng/mL,28,28,ng/mL,,Idorsia Pharmaceuticals Ltd,PLASMA,LC-MS/MS,,1,235,2020-05-04T07H30,235,,,,,Day 1 Dosing,
20214751,PC,20214751-181,525,C5A,ACT-1014-6470,ANALYTE,19.4,ng/mL,19.4,19.4,ng/mL,,Idorsia Pharmaceuticals Ltd,PLASMA,LC-MS/MS,,1,235,2020-05-04T07H30,235,,,,,Day 1 Dosing,
20214751,PC,20214751-182,526,C5A,ACT-1014-6470,ANALYTE,20,ng/mL,20,20,ng/mL,,Idorsia Pharmaceuticals Ltd,PLASMA,LC-MS/MS,,1,235,2020-05-04T07H30,235,,,,,Day 1 Dosing,
20214751,PC,20214751-206,527,C5A,ACT-1014-6470,ANALYTE,86.5,ng/mL,86.5,86.5,ng/mL,,Idorsia Pharmaceuticals Ltd,PLASMA,LC-MS/MS,,1,235,2020-05-04T07H30,235,,,,,Day 1 Dosing,
20214751,PC,20214751-207,528,C5A,ACT-1014-6470,ANALYTE,6.55,ng/mL,6.55,6.55,ng/mL,,Idorsia Pharmaceuticals Ltd,PLASMA,LC-MS/MS,,1,235,2020-05-04T07H30,235,,,,,Day 1 Dosing,
20214751,PC,20214751-208,529,C5A,ACT-1014-6470,ANALYTE,23,ng/mL,23,23,ng/mL, ,Idorsia Pharmaceuticals Ltd,PLASMA,LC-MS/MS,,1,235,2020-05-04T07H30,235,,,,,Day 1 Dosing,
