STUDYID,DOMAIN,USUBJID,EXSEQ,EXTRT,EXDOSE,EXDOSU,EXDOSFRM,EXDOSFRQ,EXROUTE,EXLOT,EXTRTV,EXVAMT,EXVAMTU,EXSTDTC,EXSTDY
20214751,EX,20214751-151,1,ACT-709478,0,mg/kg,SOLUTION,QD,ORAL GAVAGE,,Methylcellulose 0.5% / polyoxyethylene sorbitan monooleate (Tween 80) 0.5% / water (w/v/v),10,mL/kg,2018-10-09,1
20214751,EX,20214751-151,2,ACT-709478,0,mg/kg,SOLUTION,QD,ORAL GAVAGE,,Methylcellulose 0.5% / polyoxyethylene sorbitan monooleate (Tween 80) 0.5% / water (w/v/v),10,mL/kg,2018-10-10,2
20214751,EX,20214751-151,3,ACT-709478,0,mg/kg,SOLUTION,QD,ORAL GAVAGE,,Methylcellulose 0.5% / polyoxyethylene sorbitan monooleate (Tween 80) 0.5% / water (w/v/v),10,mL/kg,2018-10-11,3
20214751,EX,20214751-151,4,ACT-709478,0,mg/kg,SOLUTION,QD,ORAL GAVAGE,,Methylcellulose 0.5% / polyoxyethylene sorbitan monooleate (Tween 80) 0.5% / water (w/v/v),10,mL/kg,2018-10-12,4
20214751,EX,20214751-151,5,ACT-709478,0,mg/kg,SOLUTION,QD,ORAL GAVAGE,,Methylcellulose 0.5% / polyoxyethylene sorbitan monooleate (Tween 80) 0.5% / water (w/v/v),10,mL/kg,2018-10-13,5
20214751,EX,20214751-151,6,ACT-709478,0,mg/kg,SOLUTION,QD,ORAL GAVAGE,,Methylcellulose 0.5% / polyoxyethylene sorbitan monooleate (Tween 80) 0.5% / water (w/v/v),10,mL/kg,2018-10-14,6
20214751,EX,20214751-151,7,ACT-709478,0,mg/kg,SOLUTION,QD,ORAL GAVAGE,,Methylcellulose 0.5% / polyoxyethylene sorbitan monooleate (Tween 80) 0.5% / water (w/v/v),10,mL/kg,2018-10-15,7
20214751,EX,20214751-151,8,ACT-709478,0,mg/kg,SOLUTION,QD,ORAL GAVAGE,,Methylcellulose 0.5% / polyoxyethylene sorbitan monooleate (Tween 80) 0.5% / water (w/v/v),10,mL/kg,2018-10-16,8
20214751,EX,20214751-151,9,ACT-709478,0,mg/kg,SOLUTION,QD,ORAL GAVAGE,,Methylcellulose 0.5% / polyoxyethylene sorbitan monooleate (Tween 80) 0.5% / water (w/v/v),10,mL/kg,2018-10-17,9
20214751,EX,20214751-151,10,ACT-709478,0,mg/kg,SOLUTION,QD,ORAL GAVAGE,,Methylcellulose 0.5% / polyoxyethylene sorbitan monooleate (Tween 80) 0.5% / water (w/v/v),10,mL/kg,2018-10-18,10
20214751,EX,20214751-151,11,ACT-709478,0,mg/kg,SOLUTION,QD,ORAL GAVAGE,,Methylcellulose 0.5% / polyoxyethylene sorbitan monooleate (Tween 80) 0.5% / water (w/v/v),10,mL/kg,2018-10-19,11
20214751,EX,20214751-151,12,ACT-709478,0,mg/kg,SOLUTION,QD,ORAL GAVAGE,,Methylcellulose 0.5% / polyoxyethylene sorbitan monooleate (Tween 80) 0.5% / water (w/v/v),10,mL/kg,2018-10-20,12
20214751,EX,20214751-151,13,ACT-709478,0,mg/kg,SOLUTION,QD,ORAL GAVAGE,,Methylcellulose 0.5% / polyoxyethylene sorbitan monooleate (Tween 80) 0.5% / water (w/v/v),10,mL/kg,2018-10-21,13
20214751,EX,20214751-151,14,ACT-709478,0,mg/kg,SOLUTION,QD,ORAL GAVAGE,,Methylcellulose 0.5% / polyoxyethylene sorbitan monooleate (Tween 80) 0.5% / water (w/v/v),10,mL/kg,2018-10-22,14
20214751,EX,20214751-151,15,ACT-709478,0,mg/kg,SOLUTION,QD,ORAL GAVAGE,,Methylcellulose 0.5% / polyoxyethylene sorbitan monooleate (Tween 80) 0.5% / water (w/v/v),10,mL/kg,2018-10-23,15
20214751,EX,20214751-151,16,ACT-709478,0,mg/kg,SOLUTION,QD,ORAL GAVAGE,,Methylcellulose 0.5% / polyoxyethylene sorbitan monooleate (Tween 80) 0.5% / water (w/v/v),10,mL/kg,2018-10-24,16
20214751,EX,20214751-151,17,ACT-709478,0,mg/kg,SOLUTION,QD,ORAL GAVAGE,,Methylcellulose 0.5% / polyoxyethylene sorbitan monooleate (Tween 80) 0.5% / water (w/v/v),10,mL/kg,2018-10-25,17
20214751,EX,20214751-151,18,ACT-709478,0,mg/kg,SOLUTION,QD,ORAL GAVAGE,,Methylcellulose 0.5% / polyoxyethylene sorbitan monooleate (Tween 80) 0.5% / water (w/v/v),10,mL/kg,2018-10-26,18
20214751,EX,20214751-151,19,ACT-709478,0,mg/kg,SOLUTION,QD,ORAL GAVAGE,,Methylcellulose 0.5% / polyoxyethylene sorbitan monooleate (Tween 80) 0.5% / water (w/v/v),10,mL/kg,2018-10-27,19
20214751,EX,20214751-151,20,ACT-709478,0,mg/kg,SOLUTION,QD,ORAL GAVAGE,,Methylcellulose 0.5% / polyoxyethylene sorbitan monooleate (Tween 80) 0.5% / water (w/v/v),10,mL/kg,2018-10-28,20
20214751,EX,20214751-151,21,ACT-709478,0,mg/kg,SOLUTION,QD,ORAL GAVAGE,,Methylcellulose 0.5% / polyoxyethylene sorbitan monooleate (Tween 80) 0.5% / water (w/v/v),10,mL/kg,2018-10-29,21
20214751,EX,20214751-151,22,ACT-709478,0,mg/kg,SOLUTION,QD,ORAL GAVAGE,,Methylcellulose 0.5% / polyoxyethylene sorbitan monooleate (Tween 80) 0.5% / water (w/v/v),10,mL/kg,2018-10-30,22
20214751,EX,20214751-151,23,ACT-709478,0,mg/kg,SOLUTION,QD,ORAL GAVAGE,,Methylcellulose 0.5% / polyoxyethylene sorbitan monooleate (Tween 80) 0.5% / water (w/v/v),10,mL/kg,2018-10-31,23
20214751,EX,20214751-151,24,ACT-709478,0,mg/kg,SOLUTION,QD,ORAL GAVAGE,,Methylcellulose 0.5% / polyoxyethylene sorbitan monooleate (Tween 80) 0.5% / water (w/v/v),10,mL/kg,2018-11-01,24
20214751,EX,20214751-151,25,ACT-709478,0,mg/kg,SOLUTION,QD,ORAL GAVAGE,,Methylcellulose 0.5% / polyoxyethylene sorbitan monooleate (Tween 80) 0.5% / water (w/v/v),10,mL/kg,2018-11-02,25
20214751,EX,20214751-151,26,ACT-709478,0,mg/kg,SOLUTION,QD,ORAL GAVAGE,,Methylcellulose 0.5% / polyoxyethylene sorbitan monooleate (Tween 80) 0.5% / water (w/v/v),10,mL/kg,2018-11-03,26
20214751,EX,20214751-151,27,ACT-709478,0,mg/kg,SOLUTION,QD,ORAL GAVAGE,,Methylcellulose 0.5% / polyoxyethylene sorbitan monooleate (Tween 80) 0.5% / water (w/v/v),10,mL/kg,2018-11-04,27
20214751,EX,20214751-151,28,ACT-709478,0,mg/kg,SOLUTION,QD,ORAL GAVAGE,,Methylcellulose 0.5% / polyoxyethylene sorbitan monooleate (Tween 80) 0.5% / water (w/v/v),10,mL/kg,2018-11-05,28
20214751,EX,20214751-151,29,ACT-709478,0,mg/kg,SOLUTION,QD,ORAL GAVAGE,,Methylcellulose 0.5% / polyoxyethylene sorbitan monooleate (Tween 80) 0.5% / water (w/v/v),10,mL/kg,2018-11-06,29
20214751,EX,20214751-151,30,ACT-709478,0,mg/kg,SOLUTION,QD,ORAL GAVAGE,,Methylcellulose 0.5% / polyoxyethylene sorbitan monooleate (Tween 80) 0.5% / water (w/v/v),10,mL/kg,2018-11-07,30
20214751,EX,20214751-151,31,ACT-709478,0,mg/kg,SOLUTION,QD,ORAL GAVAGE,,Methylcellulose 0.5% / polyoxyethylene sorbitan monooleate (Tween 80) 0.5% / water (w/v/v),10,mL/kg,2018-11-08,31
20214751,EX,20214751-151,32,ACT-709478,0,mg/kg,SOLUTION,QD,ORAL GAVAGE,,Methylcellulose 0.5% / polyoxyethylene sorbitan monooleate (Tween 80) 0.5% / water (w/v/v),10,mL/kg,2018-11-09,32
20214751,EX,20214751-151,33,ACT-709478,0,mg/kg,SOLUTION,QD,ORAL GAVAGE,,Methylcellulose 0.5% / polyoxyethylene sorbitan monooleate (Tween 80) 0.5% / water (w/v/v),10,mL/kg,2018-11-10,33
20214751,EX,20214751-151,34,ACT-709478,0,mg/kg,SOLUTION,QD,ORAL GAVAGE,,Methylcellulose 0.5% / polyoxyethylene sorbitan monooleate (Tween 80) 0.5% / water (w/v/v),10,mL/kg,2018-11-11,34
20214751,EX,20214751-151,35,ACT-709478,0,mg/kg,SOLUTION,QD,ORAL GAVAGE,,Methylcellulose 0.5% / polyoxyethylene sorbitan monooleate (Tween 80) 0.5% / water (w/v/v),10,mL/kg,2018-11-12,35
20214751,EX,20214751-151,36,ACT-709478,0,mg/kg,SOLUTION,QD,ORAL GAVAGE,,Methylcellulose 0.5% / polyoxyethylene sorbitan monooleate (Tween 80) 0.5% / water (w/v/v),10,mL/kg,2018-11-13,36
20214751,EX,20214751-151,37,ACT-709478,0,mg/kg,SOLUTION,QD,ORAL GAVAGE,,Methylcellulose 0.5% / polyoxyethylene sorbitan monooleate (Tween 80) 0.5% / water (w/v/v),10,mL/kg,2018-11-14,37
20214751,EX,20214751-151,38,ACT-709478,0,mg/kg,SOLUTION,QD,ORAL GAVAGE,,Methylcellulose 0.5% / polyoxyethylene sorbitan monooleate (Tween 80) 0.5% / water (w/v/v),10,mL/kg,2018-11-15,38
20214751,EX,20214751-151,39,ACT-709478,0,mg/kg,SOLUTION,QD,ORAL GAVAGE,,Methylcellulose 0.5% / polyoxyethylene sorbitan monooleate (Tween 80) 0.5% / water (w/v/v),10,mL/kg,2018-11-16,39
20214751,EX,20214751-151,40,ACT-709478,0,mg/kg,SOLUTION,QD,ORAL GAVAGE,,Methylcellulose 0.5% / polyoxyethylene sorbitan monooleate (Tween 80) 0.5% / water (w/v/v),10,mL/kg,2018-11-17,40
20214751,EX,20214751-151,41,ACT-709478,0,mg/kg,SOLUTION,QD,ORAL GAVAGE,,Methylcellulose 0.5% / polyoxyethylene sorbitan monooleate (Tween 80) 0.5% / water (w/v/v),10,mL/kg,2018-11-18,41
20214751,EX,20214751-151,42,ACT-709478,0,mg/kg,SOLUTION,QD,ORAL GAVAGE,,Methylcellulose 0.5% / polyoxyethylene sorbitan monooleate (Tween 80) 0.5% / water (w/v/v),10,mL/kg,2018-11-19,42
20214751,EX,20214751-151,43,ACT-709478,0,mg/kg,SOLUTION,QD,ORAL GAVAGE,,Methylcellulose 0.5% / polyoxyethylene sorbitan monooleate (Tween 80) 0.5% / water (w/v/v),10,mL/kg,2018-11-20,43
20214751,EX,20214751-151,44,ACT-709478,0,mg/kg,SOLUTION,QD,ORAL GAVAGE,,Methylcellulose 0.5% / polyoxyethylene sorbitan monooleate (Tween 80) 0.5% / water (w/v/v),10,mL/kg,2018-11-21,44
20214751,EX,20214751-151,45,ACT-709478,0,mg/kg,SOLUTION,QD,ORAL GAVAGE,,Methylcellulose 0.5% / polyoxyethylene sorbitan monooleate (Tween 80) 0.5% / water (w/v/v),10,mL/kg,2018-11-22,45
20214751,EX,20214751-152,46,ACT-709478,0,mg/kg,SOLUTION,QD,ORAL GAVAGE,,Methylcellulose 0.5% / polyoxyethylene sorbitan monooleate (Tween 80) 0.5% / water (w/v/v),10,mL/kg,2018-10-09,1
20214751,EX,20214751-152,47,ACT-709478,0,mg/kg,SOLUTION,QD,ORAL GAVAGE,,Methylcellulose 0.5% / polyoxyethylene sorbitan monooleate (Tween 80) 0.5% / water (w/v/v),10,mL/kg,2018-10-10,2
20214751,EX,20214751-152,48,ACT-709478,0,mg/kg,SOLUTION,QD,ORAL GAVAGE,,Methylcellulose 0.5% / polyoxyethylene sorbitan monooleate (Tween 80) 0.5% / water (w/v/v),10,mL/kg,2018-10-11,3
20214751,EX,20214751-152,49,ACT-709478,0,mg/kg,SOLUTION,QD,ORAL GAVAGE,,Methylcellulose 0.5% / polyoxyethylene sorbitan monooleate (Tween 80) 0.5% / water (w/v/v),10,mL/kg,2018-10-12,4
20214751,EX,20214751-152,50,ACT-709478,0,mg/kg,SOLUTION,QD,ORAL GAVAGE,,Methylcellulose 0.5% / polyoxyethylene sorbitan monooleate (Tween 80) 0.5% / water (w/v/v),10,mL/kg,2018-10-13,5
20214751,EX,20214751-152,51,ACT-709478,0,mg/kg,SOLUTION,QD,ORAL GAVAGE,,Methylcellulose 0.5% / polyoxyethylene sorbitan monooleate (Tween 80) 0.5% / water (w/v/v),10,mL/kg,2018-10-14,6
20214751,EX,20214751-152,52,ACT-709478,0,mg/kg,SOLUTION,QD,ORAL GAVAGE,,Methylcellulose 0.5% / polyoxyethylene sorbitan monooleate (Tween 80) 0.5% / water (w/v/v),10,mL/kg,2018-10-15,7
20214751,EX,20214751-152,53,ACT-709478,0,mg/kg,SOLUTION,QD,ORAL GAVAGE,,Methylcellulose 0.5% / polyoxyethylene sorbitan monooleate (Tween 80) 0.5% / water (w/v/v),10,mL/kg,2018-10-16,8
20214751,EX,20214751-152,54,ACT-709478,0,mg/kg,SOLUTION,QD,ORAL GAVAGE,,Methylcellulose 0.5% / polyoxyethylene sorbitan monooleate (Tween 80) 0.5% / water (w/v/v),10,mL/kg,2018-10-17,9
20214751,EX,20214751-152,55,ACT-709478,0,mg/kg,SOLUTION,QD,ORAL GAVAGE,,Methylcellulose 0.5% / polyoxyethylene sorbitan monooleate (Tween 80) 0.5% / water (w/v/v),10,mL/kg,2018-10-18,10
20214751,EX,20214751-152,56,ACT-709478,0,mg/kg,SOLUTION,QD,ORAL GAVAGE,,Methylcellulose 0.5% / polyoxyethylene sorbitan monooleate (Tween 80) 0.5% / water (w/v/v),10,mL/kg,2018-10-19,11
20214751,EX,20214751-152,57,ACT-709478,0,mg/kg,SOLUTION,QD,ORAL GAVAGE,,Methylcellulose 0.5% / polyoxyethylene sorbitan monooleate (Tween 80) 0.5% / water (w/v/v),10,mL/kg,2018-10-20,12
20214751,EX,20214751-152,58,ACT-709478,0,mg/kg,SOLUTION,QD,ORAL GAVAGE,,Methylcellulose 0.5% / polyoxyethylene sorbitan monooleate (Tween 80) 0.5% / water (w/v/v),10,mL/kg,2018-10-21,13
20214751,EX,20214751-152,59,ACT-709478,0,mg/kg,SOLUTION,QD,ORAL GAVAGE,,Methylcellulose 0.5% / polyoxyethylene sorbitan monooleate (Tween 80) 0.5% / water (w/v/v),10,mL/kg,2018-10-22,14
20214751,EX,20214751-152,60,ACT-709478,0,mg/kg,SOLUTION,QD,ORAL GAVAGE,,Methylcellulose 0.5% / polyoxyethylene sorbitan monooleate (Tween 80) 0.5% / water (w/v/v),10,mL/kg,2018-10-23,15
20214751,EX,20214751-152,61,ACT-709478,0,mg/kg,SOLUTION,QD,ORAL GAVAGE,,Methylcellulose 0.5% / polyoxyethylene sorbitan monooleate (Tween 80) 0.5% / water (w/v/v),10,mL/kg,2018-10-24,16
20214751,EX,20214751-152,62,ACT-709478,0,mg/kg,SOLUTION,QD,ORAL GAVAGE,,Methylcellulose 0.5% / polyoxyethylene sorbitan monooleate (Tween 80) 0.5% / water (w/v/v),10,mL/kg,2018-10-25,17
20214751,EX,20214751-152,63,ACT-709478,0,mg/kg,SOLUTION,QD,ORAL GAVAGE,,Methylcellulose 0.5% / polyoxyethylene sorbitan monooleate (Tween 80) 0.5% / water (w/v/v),10,mL/kg,2018-10-26,18
20214751,EX,20214751-152,64,ACT-709478,0,mg/kg,SOLUTION,QD,ORAL GAVAGE,,Methylcellulose 0.5% / polyoxyethylene sorbitan monooleate (Tween 80) 0.5% / water (w/v/v),10,mL/kg,2018-10-27,19
20214751,EX,20214751-152,65,ACT-709478,0,mg/kg,SOLUTION,QD,ORAL GAVAGE,,Methylcellulose 0.5% / polyoxyethylene sorbitan monooleate (Tween 80) 0.5% / water (w/v/v),10,mL/kg,2018-10-28,20
20214751,EX,20214751-152,66,ACT-709478,0,mg/kg,SOLUTION,QD,ORAL GAVAGE,,Methylcellulose 0.5% / polyoxyethylene sorbitan monooleate (Tween 80) 0.5% / water (w/v/v),10,mL/kg,2018-10-29,21
20214751,EX,20214751-152,67,ACT-709478,0,mg/kg,SOLUTION,QD,ORAL GAVAGE,,Methylcellulose 0.5% / polyoxyethylene sorbitan monooleate (Tween 80) 0.5% / water (w/v/v),10,mL/kg,2018-10-30,22
20214751,EX,20214751-152,68,ACT-709478,0,mg/kg,SOLUTION,QD,ORAL GAVAGE,,Methylcellulose 0.5% / polyoxyethylene sorbitan monooleate (Tween 80) 0.5% / water (w/v/v),10,mL/kg,2018-10-31,23
20214751,EX,20214751-152,69,ACT-709478,0,mg/kg,SOLUTION,QD,ORAL GAVAGE,,Methylcellulose 0.5% / polyoxyethylene sorbitan monooleate (Tween 80) 0.5% / water (w/v/v),10,mL/kg,2018-11-01,24
20214751,EX,20214751-152,70,ACT-709478,0,mg/kg,SOLUTION,QD,ORAL GAVAGE,,Methylcellulose 0.5% / polyoxyethylene sorbitan monooleate (Tween 80) 0.5% / water (w/v/v),10,mL/kg,2018-11-02,25
20214751,EX,20214751-152,71,ACT-709478,0,mg/kg,SOLUTION,QD,ORAL GAVAGE,,Methylcellulose 0.5% / polyoxyethylene sorbitan monooleate (Tween 80) 0.5% / water (w/v/v),10,mL/kg,2018-11-03,26
20214751,EX,20214751-152,72,ACT-709478,0,mg/kg,SOLUTION,QD,ORAL GAVAGE,,Methylcellulose 0.5% / polyoxyethylene sorbitan monooleate (Tween 80) 0.5% / water (w/v/v),10,mL/kg,2018-11-04,27
20214751,EX,20214751-152,73,ACT-709478,0,mg/kg,SOLUTION,QD,ORAL GAVAGE,,Methylcellulose 0.5% / polyoxyethylene sorbitan monooleate (Tween 80) 0.5% / water (w/v/v),10,mL/kg,2018-11-05,28
20214751,EX,20214751-152,74,ACT-709478,0,mg/kg,SOLUTION,QD,ORAL GAVAGE,,Methylcellulose 0.5% / polyoxyethylene sorbitan monooleate (Tween 80) 0.5% / water (w/v/v),10,mL/kg,2018-11-06,29
20214751,EX,20214751-152,75,ACT-709478,0,mg/kg,SOLUTION,QD,ORAL GAVAGE,,Methylcellulose 0.5% / polyoxyethylene sorbitan monooleate (Tween 80) 0.5% / water (w/v/v),10,mL/kg,2018-11-07,30
20214751,EX,20214751-152,76,ACT-709478,0,mg/kg,SOLUTION,QD,ORAL GAVAGE,,Methylcellulose 0.5% / polyoxyethylene sorbitan monooleate (Tween 80) 0.5% / water (w/v/v),10,mL/kg,2018-11-08,31
20214751,EX,20214751-152,77,ACT-709478,0,mg/kg,SOLUTION,QD,ORAL GAVAGE,,Methylcellulose 0.5% / polyoxyethylene sorbitan monooleate (Tween 80) 0.5% / water (w/v/v),10,mL/kg,2018-11-09,32
20214751,EX,20214751-152,78,ACT-709478,0,mg/kg,SOLUTION,QD,ORAL GAVAGE,,Methylcellulose 0.5% / polyoxyethylene sorbitan monooleate (Tween 80) 0.5% / water (w/v/v),10,mL/kg,2018-11-10,33
20214751,EX,20214751-152,79,ACT-709478,0,mg/kg,SOLUTION,QD,ORAL GAVAGE,,Methylcellulose 0.5% / polyoxyethylene sorbitan monooleate (Tween 80) 0.5% / water (w/v/v),10,mL/kg,2018-11-11,34
20214751,EX,20214751-152,80,ACT-709478,0,mg/kg,SOLUTION,QD,ORAL GAVAGE,,Methylcellulose 0.5% / polyoxyethylene sorbitan monooleate (Tween 80) 0.5% / water (w/v/v),10,mL/kg,2018-11-12,35
20214751,EX,20214751-152,81,ACT-709478,0,mg/kg,SOLUTION,QD,ORAL GAVAGE,,Methylcellulose 0.5% / polyoxyethylene sorbitan monooleate (Tween 80) 0.5% / water (w/v/v),10,mL/kg,2018-11-13,36
20214751,EX,20214751-152,82,ACT-709478,0,mg/kg,SOLUTION,QD,ORAL GAVAGE,,Methylcellulose 0.5% / polyoxyethylene sorbitan monooleate (Tween 80) 0.5% / water (w/v/v),10,mL/kg,2018-11-14,37
20214751,EX,20214751-152,83,ACT-709478,0,mg/kg,SOLUTION,QD,ORAL GAVAGE,,Methylcellulose 0.5% / polyoxyethylene sorbitan monooleate (Tween 80) 0.5% / water (w/v/v),10,mL/kg,2018-11-15,38
20214751,EX,20214751-152,84,ACT-709478,0,mg/kg,SOLUTION,QD,ORAL GAVAGE,,Methylcellulose 0.5% / polyoxyethylene sorbitan monooleate (Tween 80) 0.5% / water (w/v/v),10,mL/kg,2018-11-16,39
20214751,EX,20214751-152,85,ACT-709478,0,mg/kg,SOLUTION,QD,ORAL GAVAGE,,Methylcellulose 0.5% / polyoxyethylene sorbitan monooleate (Tween 80) 0.5% / water (w/v/v),10,mL/kg,2018-11-17,40
20214751,EX,20214751-152,86,ACT-709478,0,mg/kg,SOLUTION,QD,ORAL GAVAGE,,Methylcellulose 0.5% / polyoxyethylene sorbitan monooleate (Tween 80) 0.5% / water (w/v/v),10,mL/kg,2018-11-18,41
20214751,EX,20214751-152,87,ACT-709478,0,mg/kg,SOLUTION,QD,ORAL GAVAGE,,Methylcellulose 0.5% / polyoxyethylene sorbitan monooleate (Tween 80) 0.5% / water (w/v/v),10,mL/kg,2018-11-19,42
20214751,EX,20214751-152,88,ACT-709478,0,mg/kg,SOLUTION,QD,ORAL GAVAGE,,Methylcellulose 0.5% / polyoxyethylene sorbitan monooleate (Tween 80) 0.5% / water (w/v/v),10,mL/kg,2018-11-20,43
20214751,EX,20214751-152,89,ACT-709478,0,mg/kg,SOLUTION,QD,ORAL GAVAGE,,Methylcellulose 0.5% / polyoxyethylene sorbitan monooleate (Tween 80) 0.5% / water (w/v/v),10,mL/kg,2018-11-21,44
20214751,EX,20214751-152,90,ACT-709478,0,mg/kg,SOLUTION,QD,ORAL GAVAGE,,Methylcellulose 0.5% / polyoxyethylene sorbitan monooleate (Tween 80) 0.5% / water (w/v/v),10,mL/kg,2018-11-22,45
20214751,EX,20214751-153,91,ACT-709478,0,mg/kg,SOLUTION,QD,ORAL GAVAGE,,Methylcellulose 0.5% / polyoxyethylene sorbitan monooleate (Tween 80) 0.5% / water (w/v/v),10,mL/kg,2018-10-09,1
20214751,EX,20214751-153,92,ACT-709478,0,mg/kg,SOLUTION,QD,ORAL GAVAGE,,Methylcellulose 0.5% / polyoxyethylene sorbitan monooleate (Tween 80) 0.5% / water (w/v/v),10,mL/kg,2018-10-10,2
20214751,EX,20214751-153,93,ACT-709478,0,mg/kg,SOLUTION,QD,ORAL GAVAGE,,Methylcellulose 0.5% / polyoxyethylene sorbitan monooleate (Tween 80) 0.5% / water (w/v/v),10,mL/kg,2018-10-11,3
20214751,EX,20214751-153,94,ACT-709478,0,mg/kg,SOLUTION,QD,ORAL GAVAGE,,Methylcellulose 0.5% / polyoxyethylene sorbitan monooleate (Tween 80) 0.5% / water (w/v/v),10,mL/kg,2018-10-12,4
20214751,EX,20214751-153,95,ACT-709478,0,mg/kg,SOLUTION,QD,ORAL GAVAGE,,Methylcellulose 0.5% / polyoxyethylene sorbitan monooleate (Tween 80) 0.5% / water (w/v/v),10,mL/kg,2018-10-13,5
20214751,EX,20214751-153,96,ACT-709478,0,mg/kg,SOLUTION,QD,ORAL GAVAGE,,Methylcellulose 0.5% / polyoxyethylene sorbitan monooleate (Tween 80) 0.5% / water (w/v/v),10,mL/kg,2018-10-14,6
20214751,EX,20214751-153,97,ACT-709478,0,mg/kg,SOLUTION,QD,ORAL GAVAGE,,Methylcellulose 0.5% / polyoxyethylene sorbitan monooleate (Tween 80) 0.5% / water (w/v/v),10,mL/kg,2018-10-15,7
20214751,EX,20214751-153,98,ACT-709478,0,mg/kg,SOLUTION,QD,ORAL GAVAGE,,Methylcellulose 0.5% / polyoxyethylene sorbitan monooleate (Tween 80) 0.5% / water (w/v/v),10,mL/kg,2018-10-16,8
20214751,EX,20214751-153,99,ACT-709478,0,mg/kg,SOLUTION,QD,ORAL GAVAGE,,Methylcellulose 0.5% / polyoxyethylene sorbitan monooleate (Tween 80) 0.5% / water (w/v/v),10,mL/kg,2018-10-17,9
20214751,EX,20214751-153,100,ACT-709478,0,mg/kg,SOLUTION,QD,ORAL GAVAGE,,Methylcellulose 0.5% / polyoxyethylene sorbitan monooleate (Tween 80) 0.5% / water (w/v/v),10,mL/kg,2018-10-18,10
20214751,EX,20214751-153,101,ACT-709478,0,mg/kg,SOLUTION,QD,ORAL GAVAGE,,Methylcellulose 0.5% / polyoxyethylene sorbitan monooleate (Tween 80) 0.5% / water (w/v/v),10,mL/kg,2018-10-19,11
20214751,EX,20214751-153,102,ACT-709478,0,mg/kg,SOLUTION,QD,ORAL GAVAGE,,Methylcellulose 0.5% / polyoxyethylene sorbitan monooleate (Tween 80) 0.5% / water (w/v/v),10,mL/kg,2018-10-20,12
20214751,EX,20214751-153,103,ACT-709478,0,mg/kg,SOLUTION,QD,ORAL GAVAGE,,Methylcellulose 0.5% / polyoxyethylene sorbitan monooleate (Tween 80) 0.5% / water (w/v/v),10,mL/kg,2018-10-21,13
20214751,EX,20214751-153,104,ACT-709478,0,mg/kg,SOLUTION,QD,ORAL GAVAGE,,Methylcellulose 0.5% / polyoxyethylene sorbitan monooleate (Tween 80) 0.5% / water (w/v/v),10,mL/kg,2018-10-22,14
20214751,EX,20214751-153,105,ACT-709478,0,mg/kg,SOLUTION,QD,ORAL GAVAGE,,Methylcellulose 0.5% / polyoxyethylene sorbitan monooleate (Tween 80) 0.5% / water (w/v/v),10,mL/kg,2018-10-23,15
20214751,EX,20214751-153,106,ACT-709478,0,mg/kg,SOLUTION,QD,ORAL GAVAGE,,Methylcellulose 0.5% / polyoxyethylene sorbitan monooleate (Tween 80) 0.5% / water (w/v/v),10,mL/kg,2018-10-24,16
20214751,EX,20214751-153,107,ACT-709478,0,mg/kg,SOLUTION,QD,ORAL GAVAGE,,Methylcellulose 0.5% / polyoxyethylene sorbitan monooleate (Tween 80) 0.5% / water (w/v/v),10,mL/kg,2018-10-25,17
20214751,EX,20214751-153,108,ACT-709478,0,mg/kg,SOLUTION,QD,ORAL GAVAGE,,Methylcellulose 0.5% / polyoxyethylene sorbitan monooleate (Tween 80) 0.5% / water (w/v/v),10,mL/kg,2018-10-26,18
20214751,EX,20214751-153,109,ACT-709478,0,mg/kg,SOLUTION,QD,ORAL GAVAGE,,Methylcellulose 0.5% / polyoxyethylene sorbitan monooleate (Tween 80) 0.5% / water (w/v/v),10,mL/kg,2018-10-27,19
20214751,EX,20214751-153,110,ACT-709478,0,mg/kg,SOLUTION,QD,ORAL GAVAGE,,Methylcellulose 0.5% / polyoxyethylene sorbitan monooleate (Tween 80) 0.5% / water (w/v/v),10,mL/kg,2018-10-28,20
20214751,EX,20214751-153,111,ACT-709478,0,mg/kg,SOLUTION,QD,ORAL GAVAGE,,Methylcellulose 0.5% / polyoxyethylene sorbitan monooleate (Tween 80) 0.5% / water (w/v/v),10,mL/kg,2018-10-29,21
20214751,EX,20214751-153,112,ACT-709478,0,mg/kg,SOLUTION,QD,ORAL GAVAGE,,Methylcellulose 0.5% / polyoxyethylene sorbitan monooleate (Tween 80) 0.5% / water (w/v/v),10,mL/kg,2018-10-30,22
20214751,EX,20214751-153,113,ACT-709478,0,mg/kg,SOLUTION,QD,ORAL GAVAGE,,Methylcellulose 0.5% / polyoxyethylene sorbitan monooleate (Tween 80) 0.5% / water (w/v/v),10,mL/kg,2018-10-31,23
20214751,EX,20214751-153,114,ACT-709478,0,mg/kg,SOLUTION,QD,ORAL GAVAGE,,Methylcellulose 0.5% / polyoxyethylene sorbitan monooleate (Tween 80) 0.5% / water (w/v/v),10,mL/kg,2018-11-01,24
20214751,EX,20214751-153,115,ACT-709478,0,mg/kg,SOLUTION,QD,ORAL GAVAGE,,Methylcellulose 0.5% / polyoxyethylene sorbitan monooleate (Tween 80) 0.5% / water (w/v/v),10,mL/kg,2018-11-02,25
20214751,EX,20214751-153,116,ACT-709478,0,mg/kg,SOLUTION,QD,ORAL GAVAGE,,Methylcellulose 0.5% / polyoxyethylene sorbitan monooleate (Tween 80) 0.5% / water (w/v/v),10,mL/kg,2018-11-03,26
20214751,EX,20214751-153,117,ACT-709478,0,mg/kg,SOLUTION,QD,ORAL GAVAGE,,Methylcellulose 0.5% / polyoxyethylene sorbitan monooleate (Tween 80) 0.5% / water (w/v/v),10,mL/kg,2018-11-04,27
20214751,EX,20214751-153,118,ACT-709478,0,mg/kg,SOLUTION,QD,ORAL GAVAGE,,Methylcellulose 0.5% / polyoxyethylene sorbitan monooleate (Tween 80) 0.5% / water (w/v/v),10,mL/kg,2018-11-05,28
20214751,EX,20214751-153,119,ACT-709478,0,mg/kg,SOLUTION,QD,ORAL GAVAGE,,Methylcellulose 0.5% / polyoxyethylene sorbitan monooleate (Tween 80) 0.5% / water (w/v/v),10,mL/kg,2018-11-06,29
20214751,EX,20214751-153,120,ACT-709478,0,mg/kg,SOLUTION,QD,ORAL GAVAGE,,Methylcellulose 0.5% / polyoxyethylene sorbitan monooleate (Tween 80) 0.5% / water (w/v/v),10,mL/kg,2018-11-07,30
20214751,EX,20214751-153,121,ACT-709478,0,mg/kg,SOLUTION,QD,ORAL GAVAGE,,Methylcellulose 0.5% / polyoxyethylene sorbitan monooleate (Tween 80) 0.5% / water (w/v/v),10,mL/kg,2018-11-08,31
20214751,EX,20214751-153,122,ACT-709478,0,mg/kg,SOLUTION,QD,ORAL GAVAGE,,Methylcellulose 0.5% / polyoxyethylene sorbitan monooleate (Tween 80) 0.5% / water (w/v/v),10,mL/kg,2018-11-09,32
20214751,EX,20214751-153,123,ACT-709478,0,mg/kg,SOLUTION,QD,ORAL GAVAGE,,Methylcellulose 0.5% / polyoxyethylene sorbitan monooleate (Tween 80) 0.5% / water (w/v/v),10,mL/kg,2018-11-10,33
20214751,EX,20214751-153,124,ACT-709478,0,mg/kg,SOLUTION,QD,ORAL GAVAGE,,Methylcellulose 0.5% / polyoxyethylene sorbitan monooleate (Tween 80) 0.5% / water (w/v/v),10,mL/kg,2018-11-11,34
20214751,EX,20214751-153,125,ACT-709478,0,mg/kg,SOLUTION,QD,ORAL GAVAGE,,Methylcellulose 0.5% / polyoxyethylene sorbitan monooleate (Tween 80) 0.5% / water (w/v/v),10,mL/kg,2018-11-12,35
20214751,EX,20214751-153,126,ACT-709478,0,mg/kg,SOLUTION,QD,ORAL GAVAGE,,Methylcellulose 0.5% / polyoxyethylene sorbitan monooleate (Tween 80) 0.5% / water (w/v/v),10,mL/kg,2018-11-13,36
20214751,EX,20214751-153,127,ACT-709478,0,mg/kg,SOLUTION,QD,ORAL GAVAGE,,Methylcellulose 0.5% / polyoxyethylene sorbitan monooleate (Tween 80) 0.5% / water (w/v/v),10,mL/kg,2018-11-14,37
20214751,EX,20214751-153,128,ACT-709478,0,mg/kg,SOLUTION,QD,ORAL GAVAGE,,Methylcellulose 0.5% / polyoxyethylene sorbitan monooleate (Tween 80) 0.5% / water (w/v/v),10,mL/kg,2018-11-15,38
20214751,EX,20214751-153,129,ACT-709478,0,mg/kg,SOLUTION,QD,ORAL GAVAGE,,Methylcellulose 0.5% / polyoxyethylene sorbitan monooleate (Tween 80) 0.5% / water (w/v/v),10,mL/kg,2018-11-16,39
20214751,EX,20214751-153,130,ACT-709478,0,mg/kg,SOLUTION,QD,ORAL GAVAGE,,Methylcellulose 0.5% / polyoxyethylene sorbitan monooleate (Tween 80) 0.5% / water (w/v/v),10,mL/kg,2018-11-17,40
20214751,EX,20214751-153,131,ACT-709478,0,mg/kg,SOLUTION,QD,ORAL GAVAGE,,Methylcellulose 0.5% / polyoxyethylene sorbitan monooleate (Tween 80) 0.5% / water (w/v/v),10,mL/kg,2018-11-18,41
20214751,EX,20214751-153,132,ACT-709478,0,mg/kg,SOLUTION,QD,ORAL GAVAGE,,Methylcellulose 0.5% / polyoxyethylene sorbitan monooleate (Tween 80) 0.5% / water (w/v/v),10,mL/kg,2018-11-19,42
20214751,EX,20214751-153,133,ACT-709478,0,mg/kg,SOLUTION,QD,ORAL GAVAGE,,Methylcellulose 0.5% / polyoxyethylene sorbitan monooleate (Tween 80) 0.5% / water (w/v/v),10,mL/kg,2018-11-20,43
20214751,EX,20214751-153,134,ACT-709478,0,mg/kg,SOLUTION,QD,ORAL GAVAGE,,Methylcellulose 0.5% / polyoxyethylene sorbitan monooleate (Tween 80) 0.5% / water (w/v/v),10,mL/kg,2018-11-21,44
20214751,EX,20214751-153,135,ACT-709478,0,mg/kg,SOLUTION,QD,ORAL GAVAGE,,Methylcellulose 0.5% / polyoxyethylene sorbitan monooleate (Tween 80) 0.5% / water (w/v/v),10,mL/kg,2018-11-22,45
20214751,EX,20214751-154,136,ACT-709478,0,mg/kg,SOLUTION,QD,ORAL GAVAGE,,Methylcellulose 0.5% / polyoxyethylene sorbitan monooleate (Tween 80) 0.5% / water (w/v/v),10,mL/kg,2018-10-09,1
20214751,EX,20214751-154,137,ACT-709478,0,mg/kg,SOLUTION,QD,ORAL GAVAGE,,Methylcellulose 0.5% / polyoxyethylene sorbitan monooleate (Tween 80) 0.5% / water (w/v/v),10,mL/kg,2018-10-10,2
20214751,EX,20214751-154,138,ACT-709478,0,mg/kg,SOLUTION,QD,ORAL GAVAGE,,Methylcellulose 0.5% / polyoxyethylene sorbitan monooleate (Tween 80) 0.5% / water (w/v/v),10,mL/kg,2018-10-11,3
20214751,EX,20214751-154,139,ACT-709478,0,mg/kg,SOLUTION,QD,ORAL GAVAGE,,Methylcellulose 0.5% / polyoxyethylene sorbitan monooleate (Tween 80) 0.5% / water (w/v/v),10,mL/kg,2018-10-12,4
20214751,EX,20214751-154,140,ACT-709478,0,mg/kg,SOLUTION,QD,ORAL GAVAGE,,Methylcellulose 0.5% / polyoxyethylene sorbitan monooleate (Tween 80) 0.5% / water (w/v/v),10,mL/kg,2018-10-13,5
20214751,EX,20214751-154,141,ACT-709478,0,mg/kg,SOLUTION,QD,ORAL GAVAGE,,Methylcellulose 0.5% / polyoxyethylene sorbitan monooleate (Tween 80) 0.5% / water (w/v/v),10,mL/kg,2018-10-14,6
20214751,EX,20214751-154,142,ACT-709478,0,mg/kg,SOLUTION,QD,ORAL GAVAGE,,Methylcellulose 0.5% / polyoxyethylene sorbitan monooleate (Tween 80) 0.5% / water (w/v/v),10,mL/kg,2018-10-15,7
20214751,EX,20214751-154,143,ACT-709478,0,mg/kg,SOLUTION,QD,ORAL GAVAGE,,Methylcellulose 0.5% / polyoxyethylene sorbitan monooleate (Tween 80) 0.5% / water (w/v/v),10,mL/kg,2018-10-16,8
20214751,EX,20214751-154,144,ACT-709478,0,mg/kg,SOLUTION,QD,ORAL GAVAGE,,Methylcellulose 0.5% / polyoxyethylene sorbitan monooleate (Tween 80) 0.5% / water (w/v/v),10,mL/kg,2018-10-17,9
20214751,EX,20214751-154,145,ACT-709478,0,mg/kg,SOLUTION,QD,ORAL GAVAGE,,Methylcellulose 0.5% / polyoxyethylene sorbitan monooleate (Tween 80) 0.5% / water (w/v/v),10,mL/kg,2018-10-18,10
20214751,EX,20214751-154,146,ACT-709478,0,mg/kg,SOLUTION,QD,ORAL GAVAGE,,Methylcellulose 0.5% / polyoxyethylene sorbitan monooleate (Tween 80) 0.5% / water (w/v/v),10,mL/kg,2018-10-19,11
20214751,EX,20214751-154,147,ACT-709478,0,mg/kg,SOLUTION,QD,ORAL GAVAGE,,Methylcellulose 0.5% / polyoxyethylene sorbitan monooleate (Tween 80) 0.5% / water (w/v/v),10,mL/kg,2018-10-20,12
20214751,EX,20214751-154,148,ACT-709478,0,mg/kg,SOLUTION,QD,ORAL GAVAGE,,Methylcellulose 0.5% / polyoxyethylene sorbitan monooleate (Tween 80) 0.5% / water (w/v/v),10,mL/kg,2018-10-21,13
20214751,EX,20214751-154,149,ACT-709478,0,mg/kg,SOLUTION,QD,ORAL GAVAGE,,Methylcellulose 0.5% / polyoxyethylene sorbitan monooleate (Tween 80) 0.5% / water (w/v/v),10,mL/kg,2018-10-22,14
20214751,EX,20214751-154,150,ACT-709478,0,mg/kg,SOLUTION,QD,ORAL GAVAGE,,Methylcellulose 0.5% / polyoxyethylene sorbitan monooleate (Tween 80) 0.5% / water (w/v/v),10,mL/kg,2018-10-23,15
20214751,EX,20214751-154,151,ACT-709478,0,mg/kg,SOLUTION,QD,ORAL GAVAGE,,Methylcellulose 0.5% / polyoxyethylene sorbitan monooleate (Tween 80) 0.5% / water (w/v/v),10,mL/kg,2018-10-24,16
20214751,EX,20214751-154,152,ACT-709478,0,mg/kg,SOLUTION,QD,ORAL GAVAGE,,Methylcellulose 0.5% / polyoxyethylene sorbitan monooleate (Tween 80) 0.5% / water (w/v/v),10,mL/kg,2018-10-25,17
20214751,EX,20214751-154,153,ACT-709478,0,mg/kg,SOLUTION,QD,ORAL GAVAGE,,Methylcellulose 0.5% / polyoxyethylene sorbitan monooleate (Tween 80) 0.5% / water (w/v/v),10,mL/kg,2018-10-26,18
20214751,EX,20214751-154,154,ACT-709478,0,mg/kg,SOLUTION,QD,ORAL GAVAGE,,Methylcellulose 0.5% / polyoxyethylene sorbitan monooleate (Tween 80) 0.5% / water (w/v/v),10,mL/kg,2018-10-27,19
20214751,EX,20214751-154,155,ACT-709478,0,mg/kg,SOLUTION,QD,ORAL GAVAGE,,Methylcellulose 0.5% / polyoxyethylene sorbitan monooleate (Tween 80) 0.5% / water (w/v/v),10,mL/kg,2018-10-28,20
20214751,EX,20214751-154,156,ACT-709478,0,mg/kg,SOLUTION,QD,ORAL GAVAGE,,Methylcellulose 0.5% / polyoxyethylene sorbitan monooleate (Tween 80) 0.5% / water (w/v/v),10,mL/kg,2018-10-29,21
20214751,EX,20214751-154,157,ACT-709478,0,mg/kg,SOLUTION,QD,ORAL GAVAGE,,Methylcellulose 0.5% / polyoxyethylene sorbitan monooleate (Tween 80) 0.5% / water (w/v/v),10,mL/kg,2018-10-30,22
20214751,EX,20214751-154,158,ACT-709478,0,mg/kg,SOLUTION,QD,ORAL GAVAGE,,Methylcellulose 0.5% / polyoxyethylene sorbitan monooleate (Tween 80) 0.5% / water (w/v/v),10,mL/kg,2018-10-31,23
20214751,EX,20214751-154,159,ACT-709478,0,mg/kg,SOLUTION,QD,ORAL GAVAGE,,Methylcellulose 0.5% / polyoxyethylene sorbitan monooleate (Tween 80) 0.5% / water (w/v/v),10,mL/kg,2018-11-01,24
20214751,EX,20214751-154,160,ACT-709478,0,mg/kg,SOLUTION,QD,ORAL GAVAGE,,Methylcellulose 0.5% / polyoxyethylene sorbitan monooleate (Tween 80) 0.5% / water (w/v/v),10,mL/kg,2018-11-02,25
20214751,EX,20214751-154,161,ACT-709478,0,mg/kg,SOLUTION,QD,ORAL GAVAGE,,Methylcellulose 0.5% / polyoxyethylene sorbitan monooleate (Tween 80) 0.5% / water (w/v/v),10,mL/kg,2018-11-03,26
20214751,EX,20214751-154,162,ACT-709478,0,mg/kg,SOLUTION,QD,ORAL GAVAGE,,Methylcellulose 0.5% / polyoxyethylene sorbitan monooleate (Tween 80) 0.5% / water (w/v/v),10,mL/kg,2018-11-04,27
20214751,EX,20214751-154,163,ACT-709478,0,mg/kg,SOLUTION,QD,ORAL GAVAGE,,Methylcellulose 0.5% / polyoxyethylene sorbitan monooleate (Tween 80) 0.5% / water (w/v/v),10,mL/kg,2018-11-05,28
20214751,EX,20214751-154,164,ACT-709478,0,mg/kg,SOLUTION,QD,ORAL GAVAGE,,Methylcellulose 0.5% / polyoxyethylene sorbitan monooleate (Tween 80) 0.5% / water (w/v/v),10,mL/kg,2018-11-06,29
20214751,EX,20214751-154,165,ACT-709478,0,mg/kg,SOLUTION,QD,ORAL GAVAGE,,Methylcellulose 0.5% / polyoxyethylene sorbitan monooleate (Tween 80) 0.5% / water (w/v/v),10,mL/kg,2018-11-07,30
20214751,EX,20214751-154,166,ACT-709478,0,mg/kg,SOLUTION,QD,ORAL GAVAGE,,Methylcellulose 0.5% / polyoxyethylene sorbitan monooleate (Tween 80) 0.5% / water (w/v/v),10,mL/kg,2018-11-08,31
20214751,EX,20214751-154,167,ACT-709478,0,mg/kg,SOLUTION,QD,ORAL GAVAGE,,Methylcellulose 0.5% / polyoxyethylene sorbitan monooleate (Tween 80) 0.5% / water (w/v/v),10,mL/kg,2018-11-09,32
20214751,EX,20214751-154,168,ACT-709478,0,mg/kg,SOLUTION,QD,ORAL GAVAGE,,Methylcellulose 0.5% / polyoxyethylene sorbitan monooleate (Tween 80) 0.5% / water (w/v/v),10,mL/kg,2018-11-10,33
20214751,EX,20214751-154,169,ACT-709478,0,mg/kg,SOLUTION,QD,ORAL GAVAGE,,Methylcellulose 0.5% / polyoxyethylene sorbitan monooleate (Tween 80) 0.5% / water (w/v/v),10,mL/kg,2018-11-11,34
20214751,EX,20214751-154,170,ACT-709478,0,mg/kg,SOLUTION,QD,ORAL GAVAGE,,Methylcellulose 0.5% / polyoxyethylene sorbitan monooleate (Tween 80) 0.5% / water (w/v/v),10,mL/kg,2018-11-12,35
20214751,EX,20214751-154,171,ACT-709478,0,mg/kg,SOLUTION,QD,ORAL GAVAGE,,Methylcellulose 0.5% / polyoxyethylene sorbitan monooleate (Tween 80) 0.5% / water (w/v/v),10,mL/kg,2018-11-13,36
20214751,EX,20214751-154,172,ACT-709478,0,mg/kg,SOLUTION,QD,ORAL GAVAGE,,Methylcellulose 0.5% / polyoxyethylene sorbitan monooleate (Tween 80) 0.5% / water (w/v/v),10,mL/kg,2018-11-14,37
20214751,EX,20214751-154,173,ACT-709478,0,mg/kg,SOLUTION,QD,ORAL GAVAGE,,Methylcellulose 0.5% / polyoxyethylene sorbitan monooleate (Tween 80) 0.5% / water (w/v/v),10,mL/kg,2018-11-15,38
20214751,EX,20214751-154,174,ACT-709478,0,mg/kg,SOLUTION,QD,ORAL GAVAGE,,Methylcellulose 0.5% / polyoxyethylene sorbitan monooleate (Tween 80) 0.5% / water (w/v/v),10,mL/kg,2018-11-16,39
20214751,EX,20214751-154,175,ACT-709478,0,mg/kg,SOLUTION,QD,ORAL GAVAGE,,Methylcellulose 0.5% / polyoxyethylene sorbitan monooleate (Tween 80) 0.5% / water (w/v/v),10,mL/kg,2018-11-17,40
20214751,EX,20214751-154,176,ACT-709478,0,mg/kg,SOLUTION,QD,ORAL GAVAGE,,Methylcellulose 0.5% / polyoxyethylene sorbitan monooleate (Tween 80) 0.5% / water (w/v/v),10,mL/kg,2018-11-18,41
20214751,EX,20214751-154,177,ACT-709478,0,mg/kg,SOLUTION,QD,ORAL GAVAGE,,Methylcellulose 0.5% / polyoxyethylene sorbitan monooleate (Tween 80) 0.5% / water (w/v/v),10,mL/kg,2018-11-19,42
20214751,EX,20214751-154,178,ACT-709478,0,mg/kg,SOLUTION,QD,ORAL GAVAGE,,Methylcellulose 0.5% / polyoxyethylene sorbitan monooleate (Tween 80) 0.5% / water (w/v/v),10,mL/kg,2018-11-20,43
20214751,EX,20214751-154,179,ACT-709478,0,mg/kg,SOLUTION,QD,ORAL GAVAGE,,Methylcellulose 0.5% / polyoxyethylene sorbitan monooleate (Tween 80) 0.5% / water (w/v/v),10,mL/kg,2018-11-21,44
20214751,EX,20214751-154,180,ACT-709478,0,mg/kg,SOLUTION,QD,ORAL GAVAGE,,Methylcellulose 0.5% / polyoxyethylene sorbitan monooleate (Tween 80) 0.5% / water (w/v/v),10,mL/kg,2018-11-22,45
20214751,EX,20214751-155,181,ACT-709478,0,mg/kg,SOLUTION,QD,ORAL GAVAGE,,Methylcellulose 0.5% / polyoxyethylene sorbitan monooleate (Tween 80) 0.5% / water (w/v/v),10,mL/kg,2018-10-09,1
20214751,EX,20214751-155,182,ACT-709478,0,mg/kg,SOLUTION,QD,ORAL GAVAGE,,Methylcellulose 0.5% / polyoxyethylene sorbitan monooleate (Tween 80) 0.5% / water (w/v/v),10,mL/kg,2018-10-10,2
20214751,EX,20214751-155,183,ACT-709478,0,mg/kg,SOLUTION,QD,ORAL GAVAGE,,Methylcellulose 0.5% / polyoxyethylene sorbitan monooleate (Tween 80) 0.5% / water (w/v/v),10,mL/kg,2018-10-11,3
20214751,EX,20214751-155,184,ACT-709478,0,mg/kg,SOLUTION,QD,ORAL GAVAGE,,Methylcellulose 0.5% / polyoxyethylene sorbitan monooleate (Tween 80) 0.5% / water (w/v/v),10,mL/kg,2018-10-12,4
20214751,EX,20214751-155,185,ACT-709478,0,mg/kg,SOLUTION,QD,ORAL GAVAGE,,Methylcellulose 0.5% / polyoxyethylene sorbitan monooleate (Tween 80) 0.5% / water (w/v/v),10,mL/kg,2018-10-13,5
20214751,EX,20214751-155,186,ACT-709478,0,mg/kg,SOLUTION,QD,ORAL GAVAGE,,Methylcellulose 0.5% / polyoxyethylene sorbitan monooleate (Tween 80) 0.5% / water (w/v/v),10,mL/kg,2018-10-14,6
20214751,EX,20214751-155,187,ACT-709478,0,mg/kg,SOLUTION,QD,ORAL GAVAGE,,Methylcellulose 0.5% / polyoxyethylene sorbitan monooleate (Tween 80) 0.5% / water (w/v/v),10,mL/kg,2018-10-15,7
20214751,EX,20214751-155,188,ACT-709478,0,mg/kg,SOLUTION,QD,ORAL GAVAGE,,Methylcellulose 0.5% / polyoxyethylene sorbitan monooleate (Tween 80) 0.5% / water (w/v/v),10,mL/kg,2018-10-16,8
20214751,EX,20214751-155,189,ACT-709478,0,mg/kg,SOLUTION,QD,ORAL GAVAGE,,Methylcellulose 0.5% / polyoxyethylene sorbitan monooleate (Tween 80) 0.5% / water (w/v/v),10,mL/kg,2018-10-17,9
20214751,EX,20214751-155,190,ACT-709478,0,mg/kg,SOLUTION,QD,ORAL GAVAGE,,Methylcellulose 0.5% / polyoxyethylene sorbitan monooleate (Tween 80) 0.5% / water (w/v/v),10,mL/kg,2018-10-18,10
20214751,EX,20214751-155,191,ACT-709478,0,mg/kg,SOLUTION,QD,ORAL GAVAGE,,Methylcellulose 0.5% / polyoxyethylene sorbitan monooleate (Tween 80) 0.5% / water (w/v/v),10,mL/kg,2018-10-19,11
20214751,EX,20214751-155,192,ACT-709478,0,mg/kg,SOLUTION,QD,ORAL GAVAGE,,Methylcellulose 0.5% / polyoxyethylene sorbitan monooleate (Tween 80) 0.5% / water (w/v/v),10,mL/kg,2018-10-20,12
20214751,EX,20214751-155,193,ACT-709478,0,mg/kg,SOLUTION,QD,ORAL GAVAGE,,Methylcellulose 0.5% / polyoxyethylene sorbitan monooleate (Tween 80) 0.5% / water (w/v/v),10,mL/kg,2018-10-21,13
20214751,EX,20214751-155,194,ACT-709478,0,mg/kg,SOLUTION,QD,ORAL GAVAGE,,Methylcellulose 0.5% / polyoxyethylene sorbitan monooleate (Tween 80) 0.5% / water (w/v/v),10,mL/kg,2018-10-22,14
20214751,EX,20214751-155,195,ACT-709478,0,mg/kg,SOLUTION,QD,ORAL GAVAGE,,Methylcellulose 0.5% / polyoxyethylene sorbitan monooleate (Tween 80) 0.5% / water (w/v/v),10,mL/kg,2018-10-23,15
20214751,EX,20214751-155,196,ACT-709478,0,mg/kg,SOLUTION,QD,ORAL GAVAGE,,Methylcellulose 0.5% / polyoxyethylene sorbitan monooleate (Tween 80) 0.5% / water (w/v/v),10,mL/kg,2018-10-24,16
20214751,EX,20214751-155,197,ACT-709478,0,mg/kg,SOLUTION,QD,ORAL GAVAGE,,Methylcellulose 0.5% / polyoxyethylene sorbitan monooleate (Tween 80) 0.5% / water (w/v/v),10,mL/kg,2018-10-25,17
20214751,EX,20214751-155,198,ACT-709478,0,mg/kg,SOLUTION,QD,ORAL GAVAGE,,Methylcellulose 0.5% / polyoxyethylene sorbitan monooleate (Tween 80) 0.5% / water (w/v/v),10,mL/kg,2018-10-26,18
20214751,EX,20214751-155,199,ACT-709478,0,mg/kg,SOLUTION,QD,ORAL GAVAGE,,Methylcellulose 0.5% / polyoxyethylene sorbitan monooleate (Tween 80) 0.5% / water (w/v/v),10,mL/kg,2018-10-27,19
20214751,EX,20214751-155,200,ACT-709478,0,mg/kg,SOLUTION,QD,ORAL GAVAGE,,Methylcellulose 0.5% / polyoxyethylene sorbitan monooleate (Tween 80) 0.5% / water (w/v/v),10,mL/kg,2018-10-28,20
20214751,EX,20214751-155,201,ACT-709478,0,mg/kg,SOLUTION,QD,ORAL GAVAGE,,Methylcellulose 0.5% / polyoxyethylene sorbitan monooleate (Tween 80) 0.5% / water (w/v/v),10,mL/kg,2018-10-29,21
20214751,EX,20214751-155,202,ACT-709478,0,mg/kg,SOLUTION,QD,ORAL GAVAGE,,Methylcellulose 0.5% / polyoxyethylene sorbitan monooleate (Tween 80) 0.5% / water (w/v/v),10,mL/kg,2018-10-30,22
20214751,EX,20214751-155,203,ACT-709478,0,mg/kg,SOLUTION,QD,ORAL GAVAGE,,Methylcellulose 0.5% / polyoxyethylene sorbitan monooleate (Tween 80) 0.5% / water (w/v/v),10,mL/kg,2018-10-31,23
20214751,EX,20214751-155,204,ACT-709478,0,mg/kg,SOLUTION,QD,ORAL GAVAGE,,Methylcellulose 0.5% / polyoxyethylene sorbitan monooleate (Tween 80) 0.5% / water (w/v/v),10,mL/kg,2018-11-01,24
20214751,EX,20214751-155,205,ACT-709478,0,mg/kg,SOLUTION,QD,ORAL GAVAGE,,Methylcellulose 0.5% / polyoxyethylene sorbitan monooleate (Tween 80) 0.5% / water (w/v/v),10,mL/kg,2018-11-02,25
20214751,EX,20214751-155,206,ACT-709478,0,mg/kg,SOLUTION,QD,ORAL GAVAGE,,Methylcellulose 0.5% / polyoxyethylene sorbitan monooleate (Tween 80) 0.5% / water (w/v/v),10,mL/kg,2018-11-03,26
20214751,EX,20214751-155,207,ACT-709478,0,mg/kg,SOLUTION,QD,ORAL GAVAGE,,Methylcellulose 0.5% / polyoxyethylene sorbitan monooleate (Tween 80) 0.5% / water (w/v/v),10,mL/kg,2018-11-04,27
20214751,EX,20214751-155,208,ACT-709478,0,mg/kg,SOLUTION,QD,ORAL GAVAGE,,Methylcellulose 0.5% / polyoxyethylene sorbitan monooleate (Tween 80) 0.5% / water (w/v/v),10,mL/kg,2018-11-05,28
20214751,EX,20214751-155,209,ACT-709478,0,mg/kg,SOLUTION,QD,ORAL GAVAGE,,Methylcellulose 0.5% / polyoxyethylene sorbitan monooleate (Tween 80) 0.5% / water (w/v/v),10,mL/kg,2018-11-06,29
20214751,EX,20214751-155,210,ACT-709478,0,mg/kg,SOLUTION,QD,ORAL GAVAGE,,Methylcellulose 0.5% / polyoxyethylene sorbitan monooleate (Tween 80) 0.5% / water (w/v/v),10,mL/kg,2018-11-07,30
20214751,EX,20214751-155,211,ACT-709478,0,mg/kg,SOLUTION,QD,ORAL GAVAGE,,Methylcellulose 0.5% / polyoxyethylene sorbitan monooleate (Tween 80) 0.5% / water (w/v/v),10,mL/kg,2018-11-08,31
20214751,EX,20214751-155,212,ACT-709478,0,mg/kg,SOLUTION,QD,ORAL GAVAGE,,Methylcellulose 0.5% / polyoxyethylene sorbitan monooleate (Tween 80) 0.5% / water (w/v/v),10,mL/kg,2018-11-09,32
20214751,EX,20214751-155,213,ACT-709478,0,mg/kg,SOLUTION,QD,ORAL GAVAGE,,Methylcellulose 0.5% / polyoxyethylene sorbitan monooleate (Tween 80) 0.5% / water (w/v/v),10,mL/kg,2018-11-10,33
20214751,EX,20214751-155,214,ACT-709478,0,mg/kg,SOLUTION,QD,ORAL GAVAGE,,Methylcellulose 0.5% / polyoxyethylene sorbitan monooleate (Tween 80) 0.5% / water (w/v/v),10,mL/kg,2018-11-11,34
20214751,EX,20214751-155,215,ACT-709478,0,mg/kg,SOLUTION,QD,ORAL GAVAGE,,Methylcellulose 0.5% / polyoxyethylene sorbitan monooleate (Tween 80) 0.5% / water (w/v/v),10,mL/kg,2018-11-12,35
20214751,EX,20214751-155,216,ACT-709478,0,mg/kg,SOLUTION,QD,ORAL GAVAGE,,Methylcellulose 0.5% / polyoxyethylene sorbitan monooleate (Tween 80) 0.5% / water (w/v/v),10,mL/kg,2018-11-13,36
20214751,EX,20214751-155,217,ACT-709478,0,mg/kg,SOLUTION,QD,ORAL GAVAGE,,Methylcellulose 0.5% / polyoxyethylene sorbitan monooleate (Tween 80) 0.5% / water (w/v/v),10,mL/kg,2018-11-14,37
20214751,EX,20214751-155,218,ACT-709478,0,mg/kg,SOLUTION,QD,ORAL GAVAGE,,Methylcellulose 0.5% / polyoxyethylene sorbitan monooleate (Tween 80) 0.5% / water (w/v/v),10,mL/kg,2018-11-15,38
20214751,EX,20214751-155,219,ACT-709478,0,mg/kg,SOLUTION,QD,ORAL GAVAGE,,Methylcellulose 0.5% / polyoxyethylene sorbitan monooleate (Tween 80) 0.5% / water (w/v/v),10,mL/kg,2018-11-16,39
20214751,EX,20214751-155,220,ACT-709478,0,mg/kg,SOLUTION,QD,ORAL GAVAGE,,Methylcellulose 0.5% / polyoxyethylene sorbitan monooleate (Tween 80) 0.5% / water (w/v/v),10,mL/kg,2018-11-17,40
20214751,EX,20214751-155,221,ACT-709478,0,mg/kg,SOLUTION,QD,ORAL GAVAGE,,Methylcellulose 0.5% / polyoxyethylene sorbitan monooleate (Tween 80) 0.5% / water (w/v/v),10,mL/kg,2018-11-18,41
20214751,EX,20214751-155,222,ACT-709478,0,mg/kg,SOLUTION,QD,ORAL GAVAGE,,Methylcellulose 0.5% / polyoxyethylene sorbitan monooleate (Tween 80) 0.5% / water (w/v/v),10,mL/kg,2018-11-19,42
20214751,EX,20214751-155,223,ACT-709478,0,mg/kg,SOLUTION,QD,ORAL GAVAGE,,Methylcellulose 0.5% / polyoxyethylene sorbitan monooleate (Tween 80) 0.5% / water (w/v/v),10,mL/kg,2018-11-20,43
20214751,EX,20214751-155,224,ACT-709478,0,mg/kg,SOLUTION,QD,ORAL GAVAGE,,Methylcellulose 0.5% / polyoxyethylene sorbitan monooleate (Tween 80) 0.5% / water (w/v/v),10,mL/kg,2018-11-21,44
20214751,EX,20214751-155,225,ACT-709478,0,mg/kg,SOLUTION,QD,ORAL GAVAGE,,Methylcellulose 0.5% / polyoxyethylene sorbitan monooleate (Tween 80) 0.5% / water (w/v/v),10,mL/kg,2018-11-22,45
20214751,EX,20214751-156,226,ACT-709478,0,mg/kg,SOLUTION,QD,ORAL GAVAGE,,Methylcellulose 0.5% / polyoxyethylene sorbitan monooleate (Tween 80) 0.5% / water (w/v/v),10,mL/kg,2018-10-09,1
20214751,EX,20214751-156,227,ACT-709478,0,mg/kg,SOLUTION,QD,ORAL GAVAGE,,Methylcellulose 0.5% / polyoxyethylene sorbitan monooleate (Tween 80) 0.5% / water (w/v/v),10,mL/kg,2018-10-10,2
20214751,EX,20214751-156,228,ACT-709478,0,mg/kg,SOLUTION,QD,ORAL GAVAGE,,Methylcellulose 0.5% / polyoxyethylene sorbitan monooleate (Tween 80) 0.5% / water (w/v/v),10,mL/kg,2018-10-11,3
20214751,EX,20214751-156,229,ACT-709478,0,mg/kg,SOLUTION,QD,ORAL GAVAGE,,Methylcellulose 0.5% / polyoxyethylene sorbitan monooleate (Tween 80) 0.5% / water (w/v/v),10,mL/kg,2018-10-12,4
20214751,EX,20214751-156,230,ACT-709478,0,mg/kg,SOLUTION,QD,ORAL GAVAGE,,Methylcellulose 0.5% / polyoxyethylene sorbitan monooleate (Tween 80) 0.5% / water (w/v/v),10,mL/kg,2018-10-13,5
20214751,EX,20214751-156,231,ACT-709478,0,mg/kg,SOLUTION,QD,ORAL GAVAGE,,Methylcellulose 0.5% / polyoxyethylene sorbitan monooleate (Tween 80) 0.5% / water (w/v/v),10,mL/kg,2018-10-14,6
20214751,EX,20214751-156,232,ACT-709478,0,mg/kg,SOLUTION,QD,ORAL GAVAGE,,Methylcellulose 0.5% / polyoxyethylene sorbitan monooleate (Tween 80) 0.5% / water (w/v/v),10,mL/kg,2018-10-15,7
20214751,EX,20214751-156,233,ACT-709478,0,mg/kg,SOLUTION,QD,ORAL GAVAGE,,Methylcellulose 0.5% / polyoxyethylene sorbitan monooleate (Tween 80) 0.5% / water (w/v/v),10,mL/kg,2018-10-16,8
20214751,EX,20214751-156,234,ACT-709478,0,mg/kg,SOLUTION,QD,ORAL GAVAGE,,Methylcellulose 0.5% / polyoxyethylene sorbitan monooleate (Tween 80) 0.5% / water (w/v/v),10,mL/kg,2018-10-17,9
20214751,EX,20214751-156,235,ACT-709478,0,mg/kg,SOLUTION,QD,ORAL GAVAGE,,Methylcellulose 0.5% / polyoxyethylene sorbitan monooleate (Tween 80) 0.5% / water (w/v/v),10,mL/kg,2018-10-18,10
20214751,EX,20214751-156,236,ACT-709478,0,mg/kg,SOLUTION,QD,ORAL GAVAGE,,Methylcellulose 0.5% / polyoxyethylene sorbitan monooleate (Tween 80) 0.5% / water (w/v/v),10,mL/kg,2018-10-19,11
20214751,EX,20214751-156,237,ACT-709478,0,mg/kg,SOLUTION,QD,ORAL GAVAGE,,Methylcellulose 0.5% / polyoxyethylene sorbitan monooleate (Tween 80) 0.5% / water (w/v/v),10,mL/kg,2018-10-20,12
20214751,EX,20214751-156,238,ACT-709478,0,mg/kg,SOLUTION,QD,ORAL GAVAGE,,Methylcellulose 0.5% / polyoxyethylene sorbitan monooleate (Tween 80) 0.5% / water (w/v/v),10,mL/kg,2018-10-21,13
20214751,EX,20214751-156,239,ACT-709478,0,mg/kg,SOLUTION,QD,ORAL GAVAGE,,Methylcellulose 0.5% / polyoxyethylene sorbitan monooleate (Tween 80) 0.5% / water (w/v/v),10,mL/kg,2018-10-22,14
20214751,EX,20214751-156,240,ACT-709478,0,mg/kg,SOLUTION,QD,ORAL GAVAGE,,Methylcellulose 0.5% / polyoxyethylene sorbitan monooleate (Tween 80) 0.5% / water (w/v/v),10,mL/kg,2018-10-23,15
20214751,EX,20214751-156,241,ACT-709478,0,mg/kg,SOLUTION,QD,ORAL GAVAGE,,Methylcellulose 0.5% / polyoxyethylene sorbitan monooleate (Tween 80) 0.5% / water (w/v/v),10,mL/kg,2018-10-24,16
20214751,EX,20214751-156,242,ACT-709478,0,mg/kg,SOLUTION,QD,ORAL GAVAGE,,Methylcellulose 0.5% / polyoxyethylene sorbitan monooleate (Tween 80) 0.5% / water (w/v/v),10,mL/kg,2018-10-25,17
20214751,EX,20214751-156,243,ACT-709478,0,mg/kg,SOLUTION,QD,ORAL GAVAGE,,Methylcellulose 0.5% / polyoxyethylene sorbitan monooleate (Tween 80) 0.5% / water (w/v/v),10,mL/kg,2018-10-26,18
20214751,EX,20214751-156,244,ACT-709478,0,mg/kg,SOLUTION,QD,ORAL GAVAGE,,Methylcellulose 0.5% / polyoxyethylene sorbitan monooleate (Tween 80) 0.5% / water (w/v/v),10,mL/kg,2018-10-27,19
20214751,EX,20214751-156,245,ACT-709478,0,mg/kg,SOLUTION,QD,ORAL GAVAGE,,Methylcellulose 0.5% / polyoxyethylene sorbitan monooleate (Tween 80) 0.5% / water (w/v/v),10,mL/kg,2018-10-28,20
20214751,EX,20214751-156,246,ACT-709478,0,mg/kg,SOLUTION,QD,ORAL GAVAGE,,Methylcellulose 0.5% / polyoxyethylene sorbitan monooleate (Tween 80) 0.5% / water (w/v/v),10,mL/kg,2018-10-29,21
20214751,EX,20214751-156,247,ACT-709478,0,mg/kg,SOLUTION,QD,ORAL GAVAGE,,Methylcellulose 0.5% / polyoxyethylene sorbitan monooleate (Tween 80) 0.5% / water (w/v/v),10,mL/kg,2018-10-30,22
20214751,EX,20214751-156,248,ACT-709478,0,mg/kg,SOLUTION,QD,ORAL GAVAGE,,Methylcellulose 0.5% / polyoxyethylene sorbitan monooleate (Tween 80) 0.5% / water (w/v/v),10,mL/kg,2018-10-31,23
20214751,EX,20214751-156,249,ACT-709478,0,mg/kg,SOLUTION,QD,ORAL GAVAGE,,Methylcellulose 0.5% / polyoxyethylene sorbitan monooleate (Tween 80) 0.5% / water (w/v/v),10,mL/kg,2018-11-01,24
20214751,EX,20214751-156,250,ACT-709478,0,mg/kg,SOLUTION,QD,ORAL GAVAGE,,Methylcellulose 0.5% / polyoxyethylene sorbitan monooleate (Tween 80) 0.5% / water (w/v/v),10,mL/kg,2018-11-02,25
20214751,EX,20214751-156,251,ACT-709478,0,mg/kg,SOLUTION,QD,ORAL GAVAGE,,Methylcellulose 0.5% / polyoxyethylene sorbitan monooleate (Tween 80) 0.5% / water (w/v/v),10,mL/kg,2018-11-03,26
20214751,EX,20214751-156,252,ACT-709478,0,mg/kg,SOLUTION,QD,ORAL GAVAGE,,Methylcellulose 0.5% / polyoxyethylene sorbitan monooleate (Tween 80) 0.5% / water (w/v/v),10,mL/kg,2018-11-04,27
20214751,EX,20214751-156,253,ACT-709478,0,mg/kg,SOLUTION,QD,ORAL GAVAGE,,Methylcellulose 0.5% / polyoxyethylene sorbitan monooleate (Tween 80) 0.5% / water (w/v/v),10,mL/kg,2018-11-05,28
20214751,EX,20214751-156,254,ACT-709478,0,mg/kg,SOLUTION,QD,ORAL GAVAGE,,Methylcellulose 0.5% / polyoxyethylene sorbitan monooleate (Tween 80) 0.5% / water (w/v/v),10,mL/kg,2018-11-06,29
20214751,EX,20214751-156,255,ACT-709478,0,mg/kg,SOLUTION,QD,ORAL GAVAGE,,Methylcellulose 0.5% / polyoxyethylene sorbitan monooleate (Tween 80) 0.5% / water (w/v/v),10,mL/kg,2018-11-07,30
20214751,EX,20214751-156,256,ACT-709478,0,mg/kg,SOLUTION,QD,ORAL GAVAGE,,Methylcellulose 0.5% / polyoxyethylene sorbitan monooleate (Tween 80) 0.5% / water (w/v/v),10,mL/kg,2018-11-08,31
20214751,EX,20214751-156,257,ACT-709478,0,mg/kg,SOLUTION,QD,ORAL GAVAGE,,Methylcellulose 0.5% / polyoxyethylene sorbitan monooleate (Tween 80) 0.5% / water (w/v/v),10,mL/kg,2018-11-09,32
20214751,EX,20214751-156,258,ACT-709478,0,mg/kg,SOLUTION,QD,ORAL GAVAGE,,Methylcellulose 0.5% / polyoxyethylene sorbitan monooleate (Tween 80) 0.5% / water (w/v/v),10,mL/kg,2018-11-10,33
20214751,EX,20214751-156,259,ACT-709478,0,mg/kg,SOLUTION,QD,ORAL GAVAGE,,Methylcellulose 0.5% / polyoxyethylene sorbitan monooleate (Tween 80) 0.5% / water (w/v/v),10,mL/kg,2018-11-11,34
20214751,EX,20214751-156,260,ACT-709478,0,mg/kg,SOLUTION,QD,ORAL GAVAGE,,Methylcellulose 0.5% / polyoxyethylene sorbitan monooleate (Tween 80) 0.5% / water (w/v/v),10,mL/kg,2018-11-12,35
20214751,EX,20214751-156,261,ACT-709478,0,mg/kg,SOLUTION,QD,ORAL GAVAGE,,Methylcellulose 0.5% / polyoxyethylene sorbitan monooleate (Tween 80) 0.5% / water (w/v/v),10,mL/kg,2018-11-13,36
20214751,EX,20214751-156,262,ACT-709478,0,mg/kg,SOLUTION,QD,ORAL GAVAGE,,Methylcellulose 0.5% / polyoxyethylene sorbitan monooleate (Tween 80) 0.5% / water (w/v/v),10,mL/kg,2018-11-14,37
20214751,EX,20214751-156,263,ACT-709478,0,mg/kg,SOLUTION,QD,ORAL GAVAGE,,Methylcellulose 0.5% / polyoxyethylene sorbitan monooleate (Tween 80) 0.5% / water (w/v/v),10,mL/kg,2018-11-15,38
20214751,EX,20214751-156,264,ACT-709478,0,mg/kg,SOLUTION,QD,ORAL GAVAGE,,Methylcellulose 0.5% / polyoxyethylene sorbitan monooleate (Tween 80) 0.5% / water (w/v/v),10,mL/kg,2018-11-16,39
20214751,EX,20214751-156,265,ACT-709478,0,mg/kg,SOLUTION,QD,ORAL GAVAGE,,Methylcellulose 0.5% / polyoxyethylene sorbitan monooleate (Tween 80) 0.5% / water (w/v/v),10,mL/kg,2018-11-17,40
20214751,EX,20214751-156,266,ACT-709478,0,mg/kg,SOLUTION,QD,ORAL GAVAGE,,Methylcellulose 0.5% / polyoxyethylene sorbitan monooleate (Tween 80) 0.5% / water (w/v/v),10,mL/kg,2018-11-18,41
20214751,EX,20214751-156,267,ACT-709478,0,mg/kg,SOLUTION,QD,ORAL GAVAGE,,Methylcellulose 0.5% / polyoxyethylene sorbitan monooleate (Tween 80) 0.5% / water (w/v/v),10,mL/kg,2018-11-19,42
20214751,EX,20214751-156,268,ACT-709478,0,mg/kg,SOLUTION,QD,ORAL GAVAGE,,Methylcellulose 0.5% / polyoxyethylene sorbitan monooleate (Tween 80) 0.5% / water (w/v/v),10,mL/kg,2018-11-20,43
20214751,EX,20214751-156,269,ACT-709478,0,mg/kg,SOLUTION,QD,ORAL GAVAGE,,Methylcellulose 0.5% / polyoxyethylene sorbitan monooleate (Tween 80) 0.5% / water (w/v/v),10,mL/kg,2018-11-21,44
20214751,EX,20214751-156,270,ACT-709478,0,mg/kg,SOLUTION,QD,ORAL GAVAGE,,Methylcellulose 0.5% / polyoxyethylene sorbitan monooleate (Tween 80) 0.5% / water (w/v/v),10,mL/kg,2018-11-22,45
20214751,EX,20214751-251,271,ACT-709478,250,mg/kg,SOLUTION,QD,ORAL GAVAGE,2939-AA/1,Methylcellulose 0.5% / polyoxyethylene sorbitan monooleate (Tween 80) 0.5% / water (w/v/v),10,mL/kg,2018-10-09,1
20214751,EX,20214751-251,272,ACT-709478,250,mg/kg,SOLUTION,QD,ORAL GAVAGE,2939-AA/1,Methylcellulose 0.5% / polyoxyethylene sorbitan monooleate (Tween 80) 0.5% / water (w/v/v),10,mL/kg,2018-10-10,2
20214751,EX,20214751-251,273,ACT-709478,250,mg/kg,SOLUTION,QD,ORAL GAVAGE,2939-AA/1,Methylcellulose 0.5% / polyoxyethylene sorbitan monooleate (Tween 80) 0.5% / water (w/v/v),10,mL/kg,2018-10-11,3
20214751,EX,20214751-251,274,ACT-709478,250,mg/kg,SOLUTION,QD,ORAL GAVAGE,2939-AA/1,Methylcellulose 0.5% / polyoxyethylene sorbitan monooleate (Tween 80) 0.5% / water (w/v/v),10,mL/kg,2018-10-12,4
20214751,EX,20214751-251,275,ACT-709478,250,mg/kg,SOLUTION,QD,ORAL GAVAGE,2939-AA/1,Methylcellulose 0.5% / polyoxyethylene sorbitan monooleate (Tween 80) 0.5% / water (w/v/v),10,mL/kg,2018-10-13,5
20214751,EX,20214751-251,276,ACT-709478,250,mg/kg,SOLUTION,QD,ORAL GAVAGE,2939-AA/1,Methylcellulose 0.5% / polyoxyethylene sorbitan monooleate (Tween 80) 0.5% / water (w/v/v),10,mL/kg,2018-10-14,6
20214751,EX,20214751-251,277,ACT-709478,250,mg/kg,SOLUTION,QD,ORAL GAVAGE,2939-AA/1,Methylcellulose 0.5% / polyoxyethylene sorbitan monooleate (Tween 80) 0.5% / water (w/v/v),10,mL/kg,2018-10-15,7
20214751,EX,20214751-251,278,ACT-709478,250,mg/kg,SOLUTION,QD,ORAL GAVAGE,2939-AA/1,Methylcellulose 0.5% / polyoxyethylene sorbitan monooleate (Tween 80) 0.5% / water (w/v/v),10,mL/kg,2018-10-16,8
20214751,EX,20214751-251,279,ACT-709478,250,mg/kg,SOLUTION,QD,ORAL GAVAGE,2939-AA/1,Methylcellulose 0.5% / polyoxyethylene sorbitan monooleate (Tween 80) 0.5% / water (w/v/v),10,mL/kg,2018-10-17,9
20214751,EX,20214751-251,280,ACT-709478,250,mg/kg,SOLUTION,QD,ORAL GAVAGE,2939-AA/1,Methylcellulose 0.5% / polyoxyethylene sorbitan monooleate (Tween 80) 0.5% / water (w/v/v),10,mL/kg,2018-10-18,10
20214751,EX,20214751-251,281,ACT-709478,250,mg/kg,SOLUTION,QD,ORAL GAVAGE,2939-AA/1,Methylcellulose 0.5% / polyoxyethylene sorbitan monooleate (Tween 80) 0.5% / water (w/v/v),10,mL/kg,2018-10-19,11
20214751,EX,20214751-251,282,ACT-709478,250,mg/kg,SOLUTION,QD,ORAL GAVAGE,2939-AA/1,Methylcellulose 0.5% / polyoxyethylene sorbitan monooleate (Tween 80) 0.5% / water (w/v/v),10,mL/kg,2018-10-20,12
20214751,EX,20214751-251,283,ACT-709478,250,mg/kg,SOLUTION,QD,ORAL GAVAGE,2939-AA/1,Methylcellulose 0.5% / polyoxyethylene sorbitan monooleate (Tween 80) 0.5% / water (w/v/v),10,mL/kg,2018-10-21,13
20214751,EX,20214751-251,284,ACT-709478,250,mg/kg,SOLUTION,QD,ORAL GAVAGE,2939-AA/1,Methylcellulose 0.5% / polyoxyethylene sorbitan monooleate (Tween 80) 0.5% / water (w/v/v),10,mL/kg,2018-10-22,14
20214751,EX,20214751-251,285,ACT-709478,250,mg/kg,SOLUTION,QD,ORAL GAVAGE,2939-AA/1,Methylcellulose 0.5% / polyoxyethylene sorbitan monooleate (Tween 80) 0.5% / water (w/v/v),10,mL/kg,2018-10-23,15
20214751,EX,20214751-251,286,ACT-709478,250,mg/kg,SOLUTION,QD,ORAL GAVAGE,2939-AA/1,Methylcellulose 0.5% / polyoxyethylene sorbitan monooleate (Tween 80) 0.5% / water (w/v/v),10,mL/kg,2018-10-24,16
20214751,EX,20214751-251,287,ACT-709478,250,mg/kg,SOLUTION,QD,ORAL GAVAGE,2939-AA/1,Methylcellulose 0.5% / polyoxyethylene sorbitan monooleate (Tween 80) 0.5% / water (w/v/v),10,mL/kg,2018-10-25,17
20214751,EX,20214751-251,288,ACT-709478,250,mg/kg,SOLUTION,QD,ORAL GAVAGE,2939-AA/1,Methylcellulose 0.5% / polyoxyethylene sorbitan monooleate (Tween 80) 0.5% / water (w/v/v),10,mL/kg,2018-10-26,18
20214751,EX,20214751-251,289,ACT-709478,250,mg/kg,SOLUTION,QD,ORAL GAVAGE,2939-AA/1,Methylcellulose 0.5% / polyoxyethylene sorbitan monooleate (Tween 80) 0.5% / water (w/v/v),10,mL/kg,2018-10-27,19
20214751,EX,20214751-251,290,ACT-709478,250,mg/kg,SOLUTION,QD,ORAL GAVAGE,2939-AA/1,Methylcellulose 0.5% / polyoxyethylene sorbitan monooleate (Tween 80) 0.5% / water (w/v/v),10,mL/kg,2018-10-28,20
20214751,EX,20214751-251,291,ACT-709478,250,mg/kg,SOLUTION,QD,ORAL GAVAGE,2939-AA/1,Methylcellulose 0.5% / polyoxyethylene sorbitan monooleate (Tween 80) 0.5% / water (w/v/v),10,mL/kg,2018-10-29,21
20214751,EX,20214751-251,292,ACT-709478,250,mg/kg,SOLUTION,QD,ORAL GAVAGE,2939-AA/1,Methylcellulose 0.5% / polyoxyethylene sorbitan monooleate (Tween 80) 0.5% / water (w/v/v),10,mL/kg,2018-10-30,22
20214751,EX,20214751-251,293,ACT-709478,250,mg/kg,SOLUTION,QD,ORAL GAVAGE,2939-AA/1,Methylcellulose 0.5% / polyoxyethylene sorbitan monooleate (Tween 80) 0.5% / water (w/v/v),10,mL/kg,2018-10-31,23
20214751,EX,20214751-251,294,ACT-709478,250,mg/kg,SOLUTION,QD,ORAL GAVAGE,2939-AA/1,Methylcellulose 0.5% / polyoxyethylene sorbitan monooleate (Tween 80) 0.5% / water (w/v/v),10,mL/kg,2018-11-01,24
20214751,EX,20214751-251,295,ACT-709478,250,mg/kg,SOLUTION,QD,ORAL GAVAGE,2939-AA/1,Methylcellulose 0.5% / polyoxyethylene sorbitan monooleate (Tween 80) 0.5% / water (w/v/v),10,mL/kg,2018-11-02,25
20214751,EX,20214751-251,296,ACT-709478,250,mg/kg,SOLUTION,QD,ORAL GAVAGE,2939-AA/1,Methylcellulose 0.5% / polyoxyethylene sorbitan monooleate (Tween 80) 0.5% / water (w/v/v),10,mL/kg,2018-11-03,26
20214751,EX,20214751-251,297,ACT-709478,250,mg/kg,SOLUTION,QD,ORAL GAVAGE,2939-AA/1,Methylcellulose 0.5% / polyoxyethylene sorbitan monooleate (Tween 80) 0.5% / water (w/v/v),10,mL/kg,2018-11-04,27
20214751,EX,20214751-251,298,ACT-709478,250,mg/kg,SOLUTION,QD,ORAL GAVAGE,2939-AA/1,Methylcellulose 0.5% / polyoxyethylene sorbitan monooleate (Tween 80) 0.5% / water (w/v/v),10,mL/kg,2018-11-05,28
20214751,EX,20214751-251,299,ACT-709478,250,mg/kg,SOLUTION,QD,ORAL GAVAGE,2939-AA/1,Methylcellulose 0.5% / polyoxyethylene sorbitan monooleate (Tween 80) 0.5% / water (w/v/v),10,mL/kg,2018-11-06,29
20214751,EX,20214751-251,300,ACT-709478,250,mg/kg,SOLUTION,QD,ORAL GAVAGE,2939-AA/1,Methylcellulose 0.5% / polyoxyethylene sorbitan monooleate (Tween 80) 0.5% / water (w/v/v),10,mL/kg,2018-11-07,30
20214751,EX,20214751-251,301,ACT-709478,250,mg/kg,SOLUTION,QD,ORAL GAVAGE,2939-AA/1,Methylcellulose 0.5% / polyoxyethylene sorbitan monooleate (Tween 80) 0.5% / water (w/v/v),10,mL/kg,2018-11-08,31
20214751,EX,20214751-251,302,ACT-709478,250,mg/kg,SOLUTION,QD,ORAL GAVAGE,2939-AA/1,Methylcellulose 0.5% / polyoxyethylene sorbitan monooleate (Tween 80) 0.5% / water (w/v/v),10,mL/kg,2018-11-09,32
20214751,EX,20214751-251,303,ACT-709478,250,mg/kg,SOLUTION,QD,ORAL GAVAGE,2939-AA/1,Methylcellulose 0.5% / polyoxyethylene sorbitan monooleate (Tween 80) 0.5% / water (w/v/v),10,mL/kg,2018-11-10,33
20214751,EX,20214751-251,304,ACT-709478,250,mg/kg,SOLUTION,QD,ORAL GAVAGE,2939-AA/1,Methylcellulose 0.5% / polyoxyethylene sorbitan monooleate (Tween 80) 0.5% / water (w/v/v),10,mL/kg,2018-11-11,34
20214751,EX,20214751-251,305,ACT-709478,250,mg/kg,SOLUTION,QD,ORAL GAVAGE,2939-AA/1,Methylcellulose 0.5% / polyoxyethylene sorbitan monooleate (Tween 80) 0.5% / water (w/v/v),10,mL/kg,2018-11-12,35
20214751,EX,20214751-251,306,ACT-709478,250,mg/kg,SOLUTION,QD,ORAL GAVAGE,2939-AA/1,Methylcellulose 0.5% / polyoxyethylene sorbitan monooleate (Tween 80) 0.5% / water (w/v/v),10,mL/kg,2018-11-13,36
20214751,EX,20214751-251,307,ACT-709478,250,mg/kg,SOLUTION,QD,ORAL GAVAGE,2939-AA/1,Methylcellulose 0.5% / polyoxyethylene sorbitan monooleate (Tween 80) 0.5% / water (w/v/v),10,mL/kg,2018-11-14,37
20214751,EX,20214751-251,308,ACT-709478,250,mg/kg,SOLUTION,QD,ORAL GAVAGE,2939-AA/1,Methylcellulose 0.5% / polyoxyethylene sorbitan monooleate (Tween 80) 0.5% / water (w/v/v),10,mL/kg,2018-11-15,38
20214751,EX,20214751-251,309,ACT-709478,250,mg/kg,SOLUTION,QD,ORAL GAVAGE,2939-AA/1,Methylcellulose 0.5% / polyoxyethylene sorbitan monooleate (Tween 80) 0.5% / water (w/v/v),10,mL/kg,2018-11-16,39
20214751,EX,20214751-251,310,ACT-709478,250,mg/kg,SOLUTION,QD,ORAL GAVAGE,2939-AA/1,Methylcellulose 0.5% / polyoxyethylene sorbitan monooleate (Tween 80) 0.5% / water (w/v/v),10,mL/kg,2018-11-17,40
20214751,EX,20214751-251,311,ACT-709478,250,mg/kg,SOLUTION,QD,ORAL GAVAGE,2939-AA/1,Methylcellulose 0.5% / polyoxyethylene sorbitan monooleate (Tween 80) 0.5% / water (w/v/v),10,mL/kg,2018-11-18,41
20214751,EX,20214751-251,312,ACT-709478,250,mg/kg,SOLUTION,QD,ORAL GAVAGE,2939-AA/1,Methylcellulose 0.5% / polyoxyethylene sorbitan monooleate (Tween 80) 0.5% / water (w/v/v),10,mL/kg,2018-11-19,42
20214751,EX,20214751-251,313,ACT-709478,250,mg/kg,SOLUTION,QD,ORAL GAVAGE,2939-AA/1,Methylcellulose 0.5% / polyoxyethylene sorbitan monooleate (Tween 80) 0.5% / water (w/v/v),10,mL/kg,2018-11-20,43
20214751,EX,20214751-251,314,ACT-709478,250,mg/kg,SOLUTION,QD,ORAL GAVAGE,2939-AA/1,Methylcellulose 0.5% / polyoxyethylene sorbitan monooleate (Tween 80) 0.5% / water (w/v/v),10,mL/kg,2018-11-21,44
20214751,EX,20214751-251,315,ACT-709478,250,mg/kg,SOLUTION,QD,ORAL GAVAGE,2939-AA/1,Methylcellulose 0.5% / polyoxyethylene sorbitan monooleate (Tween 80) 0.5% / water (w/v/v),10,mL/kg,2018-11-22,45
20214751,EX,20214751-252,316,ACT-709478,250,mg/kg,SOLUTION,QD,ORAL GAVAGE,2939-AA/1,Methylcellulose 0.5% / polyoxyethylene sorbitan monooleate (Tween 80) 0.5% / water (w/v/v),10,mL/kg,2018-10-09,1
20214751,EX,20214751-252,317,ACT-709478,250,mg/kg,SOLUTION,QD,ORAL GAVAGE,2939-AA/1,Methylcellulose 0.5% / polyoxyethylene sorbitan monooleate (Tween 80) 0.5% / water (w/v/v),10,mL/kg,2018-10-10,2
20214751,EX,20214751-252,318,ACT-709478,250,mg/kg,SOLUTION,QD,ORAL GAVAGE,2939-AA/1,Methylcellulose 0.5% / polyoxyethylene sorbitan monooleate (Tween 80) 0.5% / water (w/v/v),10,mL/kg,2018-10-11,3
20214751,EX,20214751-252,319,ACT-709478,250,mg/kg,SOLUTION,QD,ORAL GAVAGE,2939-AA/1,Methylcellulose 0.5% / polyoxyethylene sorbitan monooleate (Tween 80) 0.5% / water (w/v/v),10,mL/kg,2018-10-12,4
20214751,EX,20214751-252,320,ACT-709478,250,mg/kg,SOLUTION,QD,ORAL GAVAGE,2939-AA/1,Methylcellulose 0.5% / polyoxyethylene sorbitan monooleate (Tween 80) 0.5% / water (w/v/v),10,mL/kg,2018-10-13,5
20214751,EX,20214751-252,321,ACT-709478,250,mg/kg,SOLUTION,QD,ORAL GAVAGE,2939-AA/1,Methylcellulose 0.5% / polyoxyethylene sorbitan monooleate (Tween 80) 0.5% / water (w/v/v),10,mL/kg,2018-10-14,6
20214751,EX,20214751-252,322,ACT-709478,250,mg/kg,SOLUTION,QD,ORAL GAVAGE,2939-AA/1,Methylcellulose 0.5% / polyoxyethylene sorbitan monooleate (Tween 80) 0.5% / water (w/v/v),10,mL/kg,2018-10-15,7
20214751,EX,20214751-252,323,ACT-709478,250,mg/kg,SOLUTION,QD,ORAL GAVAGE,2939-AA/1,Methylcellulose 0.5% / polyoxyethylene sorbitan monooleate (Tween 80) 0.5% / water (w/v/v),10,mL/kg,2018-10-16,8
20214751,EX,20214751-252,324,ACT-709478,250,mg/kg,SOLUTION,QD,ORAL GAVAGE,2939-AA/1,Methylcellulose 0.5% / polyoxyethylene sorbitan monooleate (Tween 80) 0.5% / water (w/v/v),10,mL/kg,2018-10-17,9
20214751,EX,20214751-252,325,ACT-709478,250,mg/kg,SOLUTION,QD,ORAL GAVAGE,2939-AA/1,Methylcellulose 0.5% / polyoxyethylene sorbitan monooleate (Tween 80) 0.5% / water (w/v/v),10,mL/kg,2018-10-18,10
20214751,EX,20214751-252,326,ACT-709478,250,mg/kg,SOLUTION,QD,ORAL GAVAGE,2939-AA/1,Methylcellulose 0.5% / polyoxyethylene sorbitan monooleate (Tween 80) 0.5% / water (w/v/v),10,mL/kg,2018-10-19,11
20214751,EX,20214751-252,327,ACT-709478,250,mg/kg,SOLUTION,QD,ORAL GAVAGE,2939-AA/1,Methylcellulose 0.5% / polyoxyethylene sorbitan monooleate (Tween 80) 0.5% / water (w/v/v),10,mL/kg,2018-10-20,12
20214751,EX,20214751-252,328,ACT-709478,250,mg/kg,SOLUTION,QD,ORAL GAVAGE,2939-AA/1,Methylcellulose 0.5% / polyoxyethylene sorbitan monooleate (Tween 80) 0.5% / water (w/v/v),10,mL/kg,2018-10-21,13
20214751,EX,20214751-252,329,ACT-709478,250,mg/kg,SOLUTION,QD,ORAL GAVAGE,2939-AA/1,Methylcellulose 0.5% / polyoxyethylene sorbitan monooleate (Tween 80) 0.5% / water (w/v/v),10,mL/kg,2018-10-22,14
20214751,EX,20214751-252,330,ACT-709478,250,mg/kg,SOLUTION,QD,ORAL GAVAGE,2939-AA/1,Methylcellulose 0.5% / polyoxyethylene sorbitan monooleate (Tween 80) 0.5% / water (w/v/v),10,mL/kg,2018-10-23,15
20214751,EX,20214751-252,331,ACT-709478,250,mg/kg,SOLUTION,QD,ORAL GAVAGE,2939-AA/1,Methylcellulose 0.5% / polyoxyethylene sorbitan monooleate (Tween 80) 0.5% / water (w/v/v),10,mL/kg,2018-10-24,16
20214751,EX,20214751-252,332,ACT-709478,250,mg/kg,SOLUTION,QD,ORAL GAVAGE,2939-AA/1,Methylcellulose 0.5% / polyoxyethylene sorbitan monooleate (Tween 80) 0.5% / water (w/v/v),10,mL/kg,2018-10-25,17
20214751,EX,20214751-252,333,ACT-709478,250,mg/kg,SOLUTION,QD,ORAL GAVAGE,2939-AA/1,Methylcellulose 0.5% / polyoxyethylene sorbitan monooleate (Tween 80) 0.5% / water (w/v/v),10,mL/kg,2018-10-26,18
20214751,EX,20214751-252,334,ACT-709478,250,mg/kg,SOLUTION,QD,ORAL GAVAGE,2939-AA/1,Methylcellulose 0.5% / polyoxyethylene sorbitan monooleate (Tween 80) 0.5% / water (w/v/v),10,mL/kg,2018-10-27,19
20214751,EX,20214751-252,335,ACT-709478,250,mg/kg,SOLUTION,QD,ORAL GAVAGE,2939-AA/1,Methylcellulose 0.5% / polyoxyethylene sorbitan monooleate (Tween 80) 0.5% / water (w/v/v),10,mL/kg,2018-10-28,20
20214751,EX,20214751-252,336,ACT-709478,250,mg/kg,SOLUTION,QD,ORAL GAVAGE,2939-AA/1,Methylcellulose 0.5% / polyoxyethylene sorbitan monooleate (Tween 80) 0.5% / water (w/v/v),10,mL/kg,2018-10-29,21
20214751,EX,20214751-252,337,ACT-709478,250,mg/kg,SOLUTION,QD,ORAL GAVAGE,2939-AA/1,Methylcellulose 0.5% / polyoxyethylene sorbitan monooleate (Tween 80) 0.5% / water (w/v/v),10,mL/kg,2018-10-30,22
20214751,EX,20214751-252,338,ACT-709478,250,mg/kg,SOLUTION,QD,ORAL GAVAGE,2939-AA/1,Methylcellulose 0.5% / polyoxyethylene sorbitan monooleate (Tween 80) 0.5% / water (w/v/v),10,mL/kg,2018-10-31,23
20214751,EX,20214751-252,339,ACT-709478,250,mg/kg,SOLUTION,QD,ORAL GAVAGE,2939-AA/1,Methylcellulose 0.5% / polyoxyethylene sorbitan monooleate (Tween 80) 0.5% / water (w/v/v),10,mL/kg,2018-11-01,24
20214751,EX,20214751-252,340,ACT-709478,250,mg/kg,SOLUTION,QD,ORAL GAVAGE,2939-AA/1,Methylcellulose 0.5% / polyoxyethylene sorbitan monooleate (Tween 80) 0.5% / water (w/v/v),10,mL/kg,2018-11-02,25
20214751,EX,20214751-252,341,ACT-709478,250,mg/kg,SOLUTION,QD,ORAL GAVAGE,2939-AA/1,Methylcellulose 0.5% / polyoxyethylene sorbitan monooleate (Tween 80) 0.5% / water (w/v/v),10,mL/kg,2018-11-03,26
20214751,EX,20214751-252,342,ACT-709478,250,mg/kg,SOLUTION,QD,ORAL GAVAGE,2939-AA/1,Methylcellulose 0.5% / polyoxyethylene sorbitan monooleate (Tween 80) 0.5% / water (w/v/v),10,mL/kg,2018-11-04,27
20214751,EX,20214751-252,343,ACT-709478,250,mg/kg,SOLUTION,QD,ORAL GAVAGE,2939-AA/1,Methylcellulose 0.5% / polyoxyethylene sorbitan monooleate (Tween 80) 0.5% / water (w/v/v),10,mL/kg,2018-11-05,28
20214751,EX,20214751-252,344,ACT-709478,250,mg/kg,SOLUTION,QD,ORAL GAVAGE,2939-AA/1,Methylcellulose 0.5% / polyoxyethylene sorbitan monooleate (Tween 80) 0.5% / water (w/v/v),10,mL/kg,2018-11-06,29
20214751,EX,20214751-252,345,ACT-709478,250,mg/kg,SOLUTION,QD,ORAL GAVAGE,2939-AA/1,Methylcellulose 0.5% / polyoxyethylene sorbitan monooleate (Tween 80) 0.5% / water (w/v/v),10,mL/kg,2018-11-07,30
20214751,EX,20214751-252,346,ACT-709478,250,mg/kg,SOLUTION,QD,ORAL GAVAGE,2939-AA/1,Methylcellulose 0.5% / polyoxyethylene sorbitan monooleate (Tween 80) 0.5% / water (w/v/v),10,mL/kg,2018-11-08,31
20214751,EX,20214751-252,347,ACT-709478,250,mg/kg,SOLUTION,QD,ORAL GAVAGE,2939-AA/1,Methylcellulose 0.5% / polyoxyethylene sorbitan monooleate (Tween 80) 0.5% / water (w/v/v),10,mL/kg,2018-11-09,32
20214751,EX,20214751-252,348,ACT-709478,250,mg/kg,SOLUTION,QD,ORAL GAVAGE,2939-AA/1,Methylcellulose 0.5% / polyoxyethylene sorbitan monooleate (Tween 80) 0.5% / water (w/v/v),10,mL/kg,2018-11-10,33
20214751,EX,20214751-252,349,ACT-709478,250,mg/kg,SOLUTION,QD,ORAL GAVAGE,2939-AA/1,Methylcellulose 0.5% / polyoxyethylene sorbitan monooleate (Tween 80) 0.5% / water (w/v/v),10,mL/kg,2018-11-11,34
20214751,EX,20214751-252,350,ACT-709478,250,mg/kg,SOLUTION,QD,ORAL GAVAGE,2939-AA/1,Methylcellulose 0.5% / polyoxyethylene sorbitan monooleate (Tween 80) 0.5% / water (w/v/v),10,mL/kg,2018-11-12,35
20214751,EX,20214751-252,351,ACT-709478,250,mg/kg,SOLUTION,QD,ORAL GAVAGE,2939-AA/1,Methylcellulose 0.5% / polyoxyethylene sorbitan monooleate (Tween 80) 0.5% / water (w/v/v),10,mL/kg,2018-11-13,36
20214751,EX,20214751-252,352,ACT-709478,250,mg/kg,SOLUTION,QD,ORAL GAVAGE,2939-AA/1,Methylcellulose 0.5% / polyoxyethylene sorbitan monooleate (Tween 80) 0.5% / water (w/v/v),10,mL/kg,2018-11-14,37
20214751,EX,20214751-252,353,ACT-709478,250,mg/kg,SOLUTION,QD,ORAL GAVAGE,2939-AA/1,Methylcellulose 0.5% / polyoxyethylene sorbitan monooleate (Tween 80) 0.5% / water (w/v/v),10,mL/kg,2018-11-15,38
20214751,EX,20214751-252,354,ACT-709478,250,mg/kg,SOLUTION,QD,ORAL GAVAGE,2939-AA/1,Methylcellulose 0.5% / polyoxyethylene sorbitan monooleate (Tween 80) 0.5% / water (w/v/v),10,mL/kg,2018-11-16,39
20214751,EX,20214751-252,355,ACT-709478,250,mg/kg,SOLUTION,QD,ORAL GAVAGE,2939-AA/1,Methylcellulose 0.5% / polyoxyethylene sorbitan monooleate (Tween 80) 0.5% / water (w/v/v),10,mL/kg,2018-11-17,40
20214751,EX,20214751-252,356,ACT-709478,250,mg/kg,SOLUTION,QD,ORAL GAVAGE,2939-AA/1,Methylcellulose 0.5% / polyoxyethylene sorbitan monooleate (Tween 80) 0.5% / water (w/v/v),10,mL/kg,2018-11-18,41
20214751,EX,20214751-252,357,ACT-709478,250,mg/kg,SOLUTION,QD,ORAL GAVAGE,2939-AA/1,Methylcellulose 0.5% / polyoxyethylene sorbitan monooleate (Tween 80) 0.5% / water (w/v/v),10,mL/kg,2018-11-19,42
20214751,EX,20214751-252,358,ACT-709478,250,mg/kg,SOLUTION,QD,ORAL GAVAGE,2939-AA/1,Methylcellulose 0.5% / polyoxyethylene sorbitan monooleate (Tween 80) 0.5% / water (w/v/v),10,mL/kg,2018-11-20,43
20214751,EX,20214751-252,359,ACT-709478,250,mg/kg,SOLUTION,QD,ORAL GAVAGE,2939-AA/1,Methylcellulose 0.5% / polyoxyethylene sorbitan monooleate (Tween 80) 0.5% / water (w/v/v),10,mL/kg,2018-11-21,44
20214751,EX,20214751-252,360,ACT-709478,250,mg/kg,SOLUTION,QD,ORAL GAVAGE,2939-AA/1,Methylcellulose 0.5% / polyoxyethylene sorbitan monooleate (Tween 80) 0.5% / water (w/v/v),10,mL/kg,2018-11-22,45
20214751,EX,20214751-253,361,ACT-709478,250,mg/kg,SOLUTION,QD,ORAL GAVAGE,2939-AA/1,Methylcellulose 0.5% / polyoxyethylene sorbitan monooleate (Tween 80) 0.5% / water (w/v/v),10,mL/kg,2018-10-09,1
20214751,EX,20214751-253,362,ACT-709478,250,mg/kg,SOLUTION,QD,ORAL GAVAGE,2939-AA/1,Methylcellulose 0.5% / polyoxyethylene sorbitan monooleate (Tween 80) 0.5% / water (w/v/v),10,mL/kg,2018-10-10,2
20214751,EX,20214751-253,363,ACT-709478,250,mg/kg,SOLUTION,QD,ORAL GAVAGE,2939-AA/1,Methylcellulose 0.5% / polyoxyethylene sorbitan monooleate (Tween 80) 0.5% / water (w/v/v),10,mL/kg,2018-10-11,3
20214751,EX,20214751-253,364,ACT-709478,250,mg/kg,SOLUTION,QD,ORAL GAVAGE,2939-AA/1,Methylcellulose 0.5% / polyoxyethylene sorbitan monooleate (Tween 80) 0.5% / water (w/v/v),10,mL/kg,2018-10-12,4
20214751,EX,20214751-253,365,ACT-709478,250,mg/kg,SOLUTION,QD,ORAL GAVAGE,2939-AA/1,Methylcellulose 0.5% / polyoxyethylene sorbitan monooleate (Tween 80) 0.5% / water (w/v/v),10,mL/kg,2018-10-13,5
20214751,EX,20214751-253,366,ACT-709478,250,mg/kg,SOLUTION,QD,ORAL GAVAGE,2939-AA/1,Methylcellulose 0.5% / polyoxyethylene sorbitan monooleate (Tween 80) 0.5% / water (w/v/v),10,mL/kg,2018-10-14,6
20214751,EX,20214751-253,367,ACT-709478,250,mg/kg,SOLUTION,QD,ORAL GAVAGE,2939-AA/1,Methylcellulose 0.5% / polyoxyethylene sorbitan monooleate (Tween 80) 0.5% / water (w/v/v),10,mL/kg,2018-10-15,7
20214751,EX,20214751-253,368,ACT-709478,250,mg/kg,SOLUTION,QD,ORAL GAVAGE,2939-AA/1,Methylcellulose 0.5% / polyoxyethylene sorbitan monooleate (Tween 80) 0.5% / water (w/v/v),10,mL/kg,2018-10-16,8
20214751,EX,20214751-253,369,ACT-709478,250,mg/kg,SOLUTION,QD,ORAL GAVAGE,2939-AA/1,Methylcellulose 0.5% / polyoxyethylene sorbitan monooleate (Tween 80) 0.5% / water (w/v/v),10,mL/kg,2018-10-17,9
20214751,EX,20214751-253,370,ACT-709478,250,mg/kg,SOLUTION,QD,ORAL GAVAGE,2939-AA/1,Methylcellulose 0.5% / polyoxyethylene sorbitan monooleate (Tween 80) 0.5% / water (w/v/v),10,mL/kg,2018-10-18,10
20214751,EX,20214751-253,371,ACT-709478,250,mg/kg,SOLUTION,QD,ORAL GAVAGE,2939-AA/1,Methylcellulose 0.5% / polyoxyethylene sorbitan monooleate (Tween 80) 0.5% / water (w/v/v),10,mL/kg,2018-10-19,11
20214751,EX,20214751-253,372,ACT-709478,250,mg/kg,SOLUTION,QD,ORAL GAVAGE,2939-AA/1,Methylcellulose 0.5% / polyoxyethylene sorbitan monooleate (Tween 80) 0.5% / water (w/v/v),10,mL/kg,2018-10-20,12
20214751,EX,20214751-253,373,ACT-709478,250,mg/kg,SOLUTION,QD,ORAL GAVAGE,2939-AA/1,Methylcellulose 0.5% / polyoxyethylene sorbitan monooleate (Tween 80) 0.5% / water (w/v/v),10,mL/kg,2018-10-21,13
20214751,EX,20214751-253,374,ACT-709478,250,mg/kg,SOLUTION,QD,ORAL GAVAGE,2939-AA/1,Methylcellulose 0.5% / polyoxyethylene sorbitan monooleate (Tween 80) 0.5% / water (w/v/v),10,mL/kg,2018-10-22,14
20214751,EX,20214751-253,375,ACT-709478,250,mg/kg,SOLUTION,QD,ORAL GAVAGE,2939-AA/1,Methylcellulose 0.5% / polyoxyethylene sorbitan monooleate (Tween 80) 0.5% / water (w/v/v),10,mL/kg,2018-10-23,15
20214751,EX,20214751-253,376,ACT-709478,250,mg/kg,SOLUTION,QD,ORAL GAVAGE,2939-AA/1,Methylcellulose 0.5% / polyoxyethylene sorbitan monooleate (Tween 80) 0.5% / water (w/v/v),10,mL/kg,2018-10-24,16
20214751,EX,20214751-253,377,ACT-709478,250,mg/kg,SOLUTION,QD,ORAL GAVAGE,2939-AA/1,Methylcellulose 0.5% / polyoxyethylene sorbitan monooleate (Tween 80) 0.5% / water (w/v/v),10,mL/kg,2018-10-25,17
20214751,EX,20214751-253,378,ACT-709478,250,mg/kg,SOLUTION,QD,ORAL GAVAGE,2939-AA/1,Methylcellulose 0.5% / polyoxyethylene sorbitan monooleate (Tween 80) 0.5% / water (w/v/v),10,mL/kg,2018-10-26,18
20214751,EX,20214751-253,379,ACT-709478,250,mg/kg,SOLUTION,QD,ORAL GAVAGE,2939-AA/1,Methylcellulose 0.5% / polyoxyethylene sorbitan monooleate (Tween 80) 0.5% / water (w/v/v),10,mL/kg,2018-10-27,19
20214751,EX,20214751-253,380,ACT-709478,250,mg/kg,SOLUTION,QD,ORAL GAVAGE,2939-AA/1,Methylcellulose 0.5% / polyoxyethylene sorbitan monooleate (Tween 80) 0.5% / water (w/v/v),10,mL/kg,2018-10-28,20
20214751,EX,20214751-253,381,ACT-709478,250,mg/kg,SOLUTION,QD,ORAL GAVAGE,2939-AA/1,Methylcellulose 0.5% / polyoxyethylene sorbitan monooleate (Tween 80) 0.5% / water (w/v/v),10,mL/kg,2018-10-29,21
20214751,EX,20214751-253,382,ACT-709478,250,mg/kg,SOLUTION,QD,ORAL GAVAGE,2939-AA/1,Methylcellulose 0.5% / polyoxyethylene sorbitan monooleate (Tween 80) 0.5% / water (w/v/v),10,mL/kg,2018-10-30,22
20214751,EX,20214751-253,383,ACT-709478,250,mg/kg,SOLUTION,QD,ORAL GAVAGE,2939-AA/1,Methylcellulose 0.5% / polyoxyethylene sorbitan monooleate (Tween 80) 0.5% / water (w/v/v),10,mL/kg,2018-10-31,23
20214751,EX,20214751-253,384,ACT-709478,250,mg/kg,SOLUTION,QD,ORAL GAVAGE,2939-AA/1,Methylcellulose 0.5% / polyoxyethylene sorbitan monooleate (Tween 80) 0.5% / water (w/v/v),10,mL/kg,2018-11-01,24
20214751,EX,20214751-253,385,ACT-709478,250,mg/kg,SOLUTION,QD,ORAL GAVAGE,2939-AA/1,Methylcellulose 0.5% / polyoxyethylene sorbitan monooleate (Tween 80) 0.5% / water (w/v/v),10,mL/kg,2018-11-02,25
20214751,EX,20214751-253,386,ACT-709478,250,mg/kg,SOLUTION,QD,ORAL GAVAGE,2939-AA/1,Methylcellulose 0.5% / polyoxyethylene sorbitan monooleate (Tween 80) 0.5% / water (w/v/v),10,mL/kg,2018-11-03,26
20214751,EX,20214751-253,387,ACT-709478,250,mg/kg,SOLUTION,QD,ORAL GAVAGE,2939-AA/1,Methylcellulose 0.5% / polyoxyethylene sorbitan monooleate (Tween 80) 0.5% / water (w/v/v),10,mL/kg,2018-11-04,27
20214751,EX,20214751-253,388,ACT-709478,250,mg/kg,SOLUTION,QD,ORAL GAVAGE,2939-AA/1,Methylcellulose 0.5% / polyoxyethylene sorbitan monooleate (Tween 80) 0.5% / water (w/v/v),10,mL/kg,2018-11-05,28
20214751,EX,20214751-253,389,ACT-709478,250,mg/kg,SOLUTION,QD,ORAL GAVAGE,2939-AA/1,Methylcellulose 0.5% / polyoxyethylene sorbitan monooleate (Tween 80) 0.5% / water (w/v/v),10,mL/kg,2018-11-06,29
20214751,EX,20214751-253,390,ACT-709478,250,mg/kg,SOLUTION,QD,ORAL GAVAGE,2939-AA/1,Methylcellulose 0.5% / polyoxyethylene sorbitan monooleate (Tween 80) 0.5% / water (w/v/v),10,mL/kg,2018-11-07,30
20214751,EX,20214751-253,391,ACT-709478,250,mg/kg,SOLUTION,QD,ORAL GAVAGE,2939-AA/1,Methylcellulose 0.5% / polyoxyethylene sorbitan monooleate (Tween 80) 0.5% / water (w/v/v),10,mL/kg,2018-11-08,31
20214751,EX,20214751-253,392,ACT-709478,250,mg/kg,SOLUTION,QD,ORAL GAVAGE,2939-AA/1,Methylcellulose 0.5% / polyoxyethylene sorbitan monooleate (Tween 80) 0.5% / water (w/v/v),10,mL/kg,2018-11-09,32
20214751,EX,20214751-253,393,ACT-709478,250,mg/kg,SOLUTION,QD,ORAL GAVAGE,2939-AA/1,Methylcellulose 0.5% / polyoxyethylene sorbitan monooleate (Tween 80) 0.5% / water (w/v/v),10,mL/kg,2018-11-10,33
20214751,EX,20214751-253,394,ACT-709478,250,mg/kg,SOLUTION,QD,ORAL GAVAGE,2939-AA/1,Methylcellulose 0.5% / polyoxyethylene sorbitan monooleate (Tween 80) 0.5% / water (w/v/v),10,mL/kg,2018-11-11,34
20214751,EX,20214751-253,395,ACT-709478,250,mg/kg,SOLUTION,QD,ORAL GAVAGE,2939-AA/1,Methylcellulose 0.5% / polyoxyethylene sorbitan monooleate (Tween 80) 0.5% / water (w/v/v),10,mL/kg,2018-11-12,35
20214751,EX,20214751-253,396,ACT-709478,250,mg/kg,SOLUTION,QD,ORAL GAVAGE,2939-AA/1,Methylcellulose 0.5% / polyoxyethylene sorbitan monooleate (Tween 80) 0.5% / water (w/v/v),10,mL/kg,2018-11-13,36
20214751,EX,20214751-253,397,ACT-709478,250,mg/kg,SOLUTION,QD,ORAL GAVAGE,2939-AA/1,Methylcellulose 0.5% / polyoxyethylene sorbitan monooleate (Tween 80) 0.5% / water (w/v/v),10,mL/kg,2018-11-14,37
20214751,EX,20214751-253,398,ACT-709478,250,mg/kg,SOLUTION,QD,ORAL GAVAGE,2939-AA/1,Methylcellulose 0.5% / polyoxyethylene sorbitan monooleate (Tween 80) 0.5% / water (w/v/v),10,mL/kg,2018-11-15,38
20214751,EX,20214751-253,399,ACT-709478,250,mg/kg,SOLUTION,QD,ORAL GAVAGE,2939-AA/1,Methylcellulose 0.5% / polyoxyethylene sorbitan monooleate (Tween 80) 0.5% / water (w/v/v),10,mL/kg,2018-11-16,39
20214751,EX,20214751-253,400,ACT-709478,250,mg/kg,SOLUTION,QD,ORAL GAVAGE,2939-AA/1,Methylcellulose 0.5% / polyoxyethylene sorbitan monooleate (Tween 80) 0.5% / water (w/v/v),10,mL/kg,2018-11-17,40
20214751,EX,20214751-253,401,ACT-709478,250,mg/kg,SOLUTION,QD,ORAL GAVAGE,2939-AA/1,Methylcellulose 0.5% / polyoxyethylene sorbitan monooleate (Tween 80) 0.5% / water (w/v/v),10,mL/kg,2018-11-18,41
20214751,EX,20214751-253,402,ACT-709478,250,mg/kg,SOLUTION,QD,ORAL GAVAGE,2939-AA/1,Methylcellulose 0.5% / polyoxyethylene sorbitan monooleate (Tween 80) 0.5% / water (w/v/v),10,mL/kg,2018-11-19,42
20214751,EX,20214751-253,403,ACT-709478,250,mg/kg,SOLUTION,QD,ORAL GAVAGE,2939-AA/1,Methylcellulose 0.5% / polyoxyethylene sorbitan monooleate (Tween 80) 0.5% / water (w/v/v),10,mL/kg,2018-11-20,43
20214751,EX,20214751-253,404,ACT-709478,250,mg/kg,SOLUTION,QD,ORAL GAVAGE,2939-AA/1,Methylcellulose 0.5% / polyoxyethylene sorbitan monooleate (Tween 80) 0.5% / water (w/v/v),10,mL/kg,2018-11-21,44
20214751,EX,20214751-253,405,ACT-709478,250,mg/kg,SOLUTION,QD,ORAL GAVAGE,2939-AA/1,Methylcellulose 0.5% / polyoxyethylene sorbitan monooleate (Tween 80) 0.5% / water (w/v/v),10,mL/kg,2018-11-22,45
20214751,EX,20214751-254,406,ACT-709478,250,mg/kg,SOLUTION,QD,ORAL GAVAGE,2939-AA/1,Methylcellulose 0.5% / polyoxyethylene sorbitan monooleate (Tween 80) 0.5% / water (w/v/v),10,mL/kg,2018-10-09,1
20214751,EX,20214751-254,407,ACT-709478,250,mg/kg,SOLUTION,QD,ORAL GAVAGE,2939-AA/1,Methylcellulose 0.5% / polyoxyethylene sorbitan monooleate (Tween 80) 0.5% / water (w/v/v),10,mL/kg,2018-10-10,2
20214751,EX,20214751-254,408,ACT-709478,250,mg/kg,SOLUTION,QD,ORAL GAVAGE,2939-AA/1,Methylcellulose 0.5% / polyoxyethylene sorbitan monooleate (Tween 80) 0.5% / water (w/v/v),10,mL/kg,2018-10-11,3
20214751,EX,20214751-254,409,ACT-709478,250,mg/kg,SOLUTION,QD,ORAL GAVAGE,2939-AA/1,Methylcellulose 0.5% / polyoxyethylene sorbitan monooleate (Tween 80) 0.5% / water (w/v/v),10,mL/kg,2018-10-12,4
20214751,EX,20214751-254,410,ACT-709478,250,mg/kg,SOLUTION,QD,ORAL GAVAGE,2939-AA/1,Methylcellulose 0.5% / polyoxyethylene sorbitan monooleate (Tween 80) 0.5% / water (w/v/v),10,mL/kg,2018-10-13,5
20214751,EX,20214751-254,411,ACT-709478,250,mg/kg,SOLUTION,QD,ORAL GAVAGE,2939-AA/1,Methylcellulose 0.5% / polyoxyethylene sorbitan monooleate (Tween 80) 0.5% / water (w/v/v),10,mL/kg,2018-10-14,6
20214751,EX,20214751-254,412,ACT-709478,250,mg/kg,SOLUTION,QD,ORAL GAVAGE,2939-AA/1,Methylcellulose 0.5% / polyoxyethylene sorbitan monooleate (Tween 80) 0.5% / water (w/v/v),10,mL/kg,2018-10-15,7
20214751,EX,20214751-254,413,ACT-709478,250,mg/kg,SOLUTION,QD,ORAL GAVAGE,2939-AA/1,Methylcellulose 0.5% / polyoxyethylene sorbitan monooleate (Tween 80) 0.5% / water (w/v/v),10,mL/kg,2018-10-16,8
20214751,EX,20214751-254,414,ACT-709478,250,mg/kg,SOLUTION,QD,ORAL GAVAGE,2939-AA/1,Methylcellulose 0.5% / polyoxyethylene sorbitan monooleate (Tween 80) 0.5% / water (w/v/v),10,mL/kg,2018-10-17,9
20214751,EX,20214751-254,415,ACT-709478,250,mg/kg,SOLUTION,QD,ORAL GAVAGE,2939-AA/1,Methylcellulose 0.5% / polyoxyethylene sorbitan monooleate (Tween 80) 0.5% / water (w/v/v),10,mL/kg,2018-10-18,10
20214751,EX,20214751-254,416,ACT-709478,250,mg/kg,SOLUTION,QD,ORAL GAVAGE,2939-AA/1,Methylcellulose 0.5% / polyoxyethylene sorbitan monooleate (Tween 80) 0.5% / water (w/v/v),10,mL/kg,2018-10-19,11
20214751,EX,20214751-254,417,ACT-709478,250,mg/kg,SOLUTION,QD,ORAL GAVAGE,2939-AA/1,Methylcellulose 0.5% / polyoxyethylene sorbitan monooleate (Tween 80) 0.5% / water (w/v/v),10,mL/kg,2018-10-20,12
20214751,EX,20214751-254,418,ACT-709478,250,mg/kg,SOLUTION,QD,ORAL GAVAGE,2939-AA/1,Methylcellulose 0.5% / polyoxyethylene sorbitan monooleate (Tween 80) 0.5% / water (w/v/v),10,mL/kg,2018-10-21,13
20214751,EX,20214751-254,419,ACT-709478,250,mg/kg,SOLUTION,QD,ORAL GAVAGE,2939-AA/1,Methylcellulose 0.5% / polyoxyethylene sorbitan monooleate (Tween 80) 0.5% / water (w/v/v),10,mL/kg,2018-10-22,14
20214751,EX,20214751-254,420,ACT-709478,250,mg/kg,SOLUTION,QD,ORAL GAVAGE,2939-AA/1,Methylcellulose 0.5% / polyoxyethylene sorbitan monooleate (Tween 80) 0.5% / water (w/v/v),10,mL/kg,2018-10-23,15
20214751,EX,20214751-254,421,ACT-709478,250,mg/kg,SOLUTION,QD,ORAL GAVAGE,2939-AA/1,Methylcellulose 0.5% / polyoxyethylene sorbitan monooleate (Tween 80) 0.5% / water (w/v/v),10,mL/kg,2018-10-24,16
20214751,EX,20214751-254,422,ACT-709478,250,mg/kg,SOLUTION,QD,ORAL GAVAGE,2939-AA/1,Methylcellulose 0.5% / polyoxyethylene sorbitan monooleate (Tween 80) 0.5% / water (w/v/v),10,mL/kg,2018-10-25,17
20214751,EX,20214751-254,423,ACT-709478,250,mg/kg,SOLUTION,QD,ORAL GAVAGE,2939-AA/1,Methylcellulose 0.5% / polyoxyethylene sorbitan monooleate (Tween 80) 0.5% / water (w/v/v),10,mL/kg,2018-10-26,18
20214751,EX,20214751-254,424,ACT-709478,250,mg/kg,SOLUTION,QD,ORAL GAVAGE,2939-AA/1,Methylcellulose 0.5% / polyoxyethylene sorbitan monooleate (Tween 80) 0.5% / water (w/v/v),10,mL/kg,2018-10-27,19
20214751,EX,20214751-254,425,ACT-709478,250,mg/kg,SOLUTION,QD,ORAL GAVAGE,2939-AA/1,Methylcellulose 0.5% / polyoxyethylene sorbitan monooleate (Tween 80) 0.5% / water (w/v/v),10,mL/kg,2018-10-28,20
20214751,EX,20214751-254,426,ACT-709478,250,mg/kg,SOLUTION,QD,ORAL GAVAGE,2939-AA/1,Methylcellulose 0.5% / polyoxyethylene sorbitan monooleate (Tween 80) 0.5% / water (w/v/v),10,mL/kg,2018-10-29,21
20214751,EX,20214751-254,427,ACT-709478,250,mg/kg,SOLUTION,QD,ORAL GAVAGE,2939-AA/1,Methylcellulose 0.5% / polyoxyethylene sorbitan monooleate (Tween 80) 0.5% / water (w/v/v),10,mL/kg,2018-10-30,22
20214751,EX,20214751-254,428,ACT-709478,250,mg/kg,SOLUTION,QD,ORAL GAVAGE,2939-AA/1,Methylcellulose 0.5% / polyoxyethylene sorbitan monooleate (Tween 80) 0.5% / water (w/v/v),10,mL/kg,2018-10-31,23
20214751,EX,20214751-254,429,ACT-709478,250,mg/kg,SOLUTION,QD,ORAL GAVAGE,2939-AA/1,Methylcellulose 0.5% / polyoxyethylene sorbitan monooleate (Tween 80) 0.5% / water (w/v/v),10,mL/kg,2018-11-01,24
20214751,EX,20214751-254,430,ACT-709478,250,mg/kg,SOLUTION,QD,ORAL GAVAGE,2939-AA/1,Methylcellulose 0.5% / polyoxyethylene sorbitan monooleate (Tween 80) 0.5% / water (w/v/v),10,mL/kg,2018-11-02,25
20214751,EX,20214751-254,431,ACT-709478,250,mg/kg,SOLUTION,QD,ORAL GAVAGE,2939-AA/1,Methylcellulose 0.5% / polyoxyethylene sorbitan monooleate (Tween 80) 0.5% / water (w/v/v),10,mL/kg,2018-11-03,26
20214751,EX,20214751-254,432,ACT-709478,250,mg/kg,SOLUTION,QD,ORAL GAVAGE,2939-AA/1,Methylcellulose 0.5% / polyoxyethylene sorbitan monooleate (Tween 80) 0.5% / water (w/v/v),10,mL/kg,2018-11-04,27
20214751,EX,20214751-254,433,ACT-709478,250,mg/kg,SOLUTION,QD,ORAL GAVAGE,2939-AA/1,Methylcellulose 0.5% / polyoxyethylene sorbitan monooleate (Tween 80) 0.5% / water (w/v/v),10,mL/kg,2018-11-05,28
20214751,EX,20214751-254,434,ACT-709478,250,mg/kg,SOLUTION,QD,ORAL GAVAGE,2939-AA/1,Methylcellulose 0.5% / polyoxyethylene sorbitan monooleate (Tween 80) 0.5% / water (w/v/v),10,mL/kg,2018-11-06,29
20214751,EX,20214751-254,435,ACT-709478,250,mg/kg,SOLUTION,QD,ORAL GAVAGE,2939-AA/1,Methylcellulose 0.5% / polyoxyethylene sorbitan monooleate (Tween 80) 0.5% / water (w/v/v),10,mL/kg,2018-11-07,30
20214751,EX,20214751-254,436,ACT-709478,250,mg/kg,SOLUTION,QD,ORAL GAVAGE,2939-AA/1,Methylcellulose 0.5% / polyoxyethylene sorbitan monooleate (Tween 80) 0.5% / water (w/v/v),10,mL/kg,2018-11-08,31
20214751,EX,20214751-254,437,ACT-709478,250,mg/kg,SOLUTION,QD,ORAL GAVAGE,2939-AA/1,Methylcellulose 0.5% / polyoxyethylene sorbitan monooleate (Tween 80) 0.5% / water (w/v/v),10,mL/kg,2018-11-09,32
20214751,EX,20214751-254,438,ACT-709478,250,mg/kg,SOLUTION,QD,ORAL GAVAGE,2939-AA/1,Methylcellulose 0.5% / polyoxyethylene sorbitan monooleate (Tween 80) 0.5% / water (w/v/v),10,mL/kg,2018-11-10,33
20214751,EX,20214751-254,439,ACT-709478,250,mg/kg,SOLUTION,QD,ORAL GAVAGE,2939-AA/1,Methylcellulose 0.5% / polyoxyethylene sorbitan monooleate (Tween 80) 0.5% / water (w/v/v),10,mL/kg,2018-11-11,34
20214751,EX,20214751-254,440,ACT-709478,250,mg/kg,SOLUTION,QD,ORAL GAVAGE,2939-AA/1,Methylcellulose 0.5% / polyoxyethylene sorbitan monooleate (Tween 80) 0.5% / water (w/v/v),10,mL/kg,2018-11-12,35
20214751,EX,20214751-254,441,ACT-709478,250,mg/kg,SOLUTION,QD,ORAL GAVAGE,2939-AA/1,Methylcellulose 0.5% / polyoxyethylene sorbitan monooleate (Tween 80) 0.5% / water (w/v/v),10,mL/kg,2018-11-13,36
20214751,EX,20214751-254,442,ACT-709478,250,mg/kg,SOLUTION,QD,ORAL GAVAGE,2939-AA/1,Methylcellulose 0.5% / polyoxyethylene sorbitan monooleate (Tween 80) 0.5% / water (w/v/v),10,mL/kg,2018-11-14,37
20214751,EX,20214751-254,443,ACT-709478,250,mg/kg,SOLUTION,QD,ORAL GAVAGE,2939-AA/1,Methylcellulose 0.5% / polyoxyethylene sorbitan monooleate (Tween 80) 0.5% / water (w/v/v),10,mL/kg,2018-11-15,38
20214751,EX,20214751-254,444,ACT-709478,250,mg/kg,SOLUTION,QD,ORAL GAVAGE,2939-AA/1,Methylcellulose 0.5% / polyoxyethylene sorbitan monooleate (Tween 80) 0.5% / water (w/v/v),10,mL/kg,2018-11-16,39
20214751,EX,20214751-254,445,ACT-709478,250,mg/kg,SOLUTION,QD,ORAL GAVAGE,2939-AA/1,Methylcellulose 0.5% / polyoxyethylene sorbitan monooleate (Tween 80) 0.5% / water (w/v/v),10,mL/kg,2018-11-17,40
20214751,EX,20214751-254,446,ACT-709478,250,mg/kg,SOLUTION,QD,ORAL GAVAGE,2939-AA/1,Methylcellulose 0.5% / polyoxyethylene sorbitan monooleate (Tween 80) 0.5% / water (w/v/v),10,mL/kg,2018-11-18,41
20214751,EX,20214751-254,447,ACT-709478,250,mg/kg,SOLUTION,QD,ORAL GAVAGE,2939-AA/1,Methylcellulose 0.5% / polyoxyethylene sorbitan monooleate (Tween 80) 0.5% / water (w/v/v),10,mL/kg,2018-11-19,42
20214751,EX,20214751-254,448,ACT-709478,250,mg/kg,SOLUTION,QD,ORAL GAVAGE,2939-AA/1,Methylcellulose 0.5% / polyoxyethylene sorbitan monooleate (Tween 80) 0.5% / water (w/v/v),10,mL/kg,2018-11-20,43
20214751,EX,20214751-254,449,ACT-709478,250,mg/kg,SOLUTION,QD,ORAL GAVAGE,2939-AA/1,Methylcellulose 0.5% / polyoxyethylene sorbitan monooleate (Tween 80) 0.5% / water (w/v/v),10,mL/kg,2018-11-21,44
20214751,EX,20214751-254,450,ACT-709478,250,mg/kg,SOLUTION,QD,ORAL GAVAGE,2939-AA/1,Methylcellulose 0.5% / polyoxyethylene sorbitan monooleate (Tween 80) 0.5% / water (w/v/v),10,mL/kg,2018-11-22,45
20214751,EX,20214751-255,451,ACT-709478,250,mg/kg,SOLUTION,QD,ORAL GAVAGE,2939-AA/1,Methylcellulose 0.5% / polyoxyethylene sorbitan monooleate (Tween 80) 0.5% / water (w/v/v),10,mL/kg,2018-10-09,1
20214751,EX,20214751-255,452,ACT-709478,250,mg/kg,SOLUTION,QD,ORAL GAVAGE,2939-AA/1,Methylcellulose 0.5% / polyoxyethylene sorbitan monooleate (Tween 80) 0.5% / water (w/v/v),10,mL/kg,2018-10-10,2
20214751,EX,20214751-255,453,ACT-709478,250,mg/kg,SOLUTION,QD,ORAL GAVAGE,2939-AA/1,Methylcellulose 0.5% / polyoxyethylene sorbitan monooleate (Tween 80) 0.5% / water (w/v/v),10,mL/kg,2018-10-11,3
20214751,EX,20214751-255,454,ACT-709478,250,mg/kg,SOLUTION,QD,ORAL GAVAGE,2939-AA/1,Methylcellulose 0.5% / polyoxyethylene sorbitan monooleate (Tween 80) 0.5% / water (w/v/v),10,mL/kg,2018-10-12,4
20214751,EX,20214751-255,455,ACT-709478,250,mg/kg,SOLUTION,QD,ORAL GAVAGE,2939-AA/1,Methylcellulose 0.5% / polyoxyethylene sorbitan monooleate (Tween 80) 0.5% / water (w/v/v),10,mL/kg,2018-10-13,5
20214751,EX,20214751-255,456,ACT-709478,250,mg/kg,SOLUTION,QD,ORAL GAVAGE,2939-AA/1,Methylcellulose 0.5% / polyoxyethylene sorbitan monooleate (Tween 80) 0.5% / water (w/v/v),10,mL/kg,2018-10-14,6
20214751,EX,20214751-255,457,ACT-709478,250,mg/kg,SOLUTION,QD,ORAL GAVAGE,2939-AA/1,Methylcellulose 0.5% / polyoxyethylene sorbitan monooleate (Tween 80) 0.5% / water (w/v/v),10,mL/kg,2018-10-15,7
20214751,EX,20214751-255,458,ACT-709478,250,mg/kg,SOLUTION,QD,ORAL GAVAGE,2939-AA/1,Methylcellulose 0.5% / polyoxyethylene sorbitan monooleate (Tween 80) 0.5% / water (w/v/v),10,mL/kg,2018-10-16,8
20214751,EX,20214751-255,459,ACT-709478,250,mg/kg,SOLUTION,QD,ORAL GAVAGE,2939-AA/1,Methylcellulose 0.5% / polyoxyethylene sorbitan monooleate (Tween 80) 0.5% / water (w/v/v),10,mL/kg,2018-10-17,9
20214751,EX,20214751-255,460,ACT-709478,250,mg/kg,SOLUTION,QD,ORAL GAVAGE,2939-AA/1,Methylcellulose 0.5% / polyoxyethylene sorbitan monooleate (Tween 80) 0.5% / water (w/v/v),10,mL/kg,2018-10-18,10
20214751,EX,20214751-255,461,ACT-709478,250,mg/kg,SOLUTION,QD,ORAL GAVAGE,2939-AA/1,Methylcellulose 0.5% / polyoxyethylene sorbitan monooleate (Tween 80) 0.5% / water (w/v/v),10,mL/kg,2018-10-19,11
20214751,EX,20214751-255,462,ACT-709478,250,mg/kg,SOLUTION,QD,ORAL GAVAGE,2939-AA/1,Methylcellulose 0.5% / polyoxyethylene sorbitan monooleate (Tween 80) 0.5% / water (w/v/v),10,mL/kg,2018-10-20,12
20214751,EX,20214751-255,463,ACT-709478,250,mg/kg,SOLUTION,QD,ORAL GAVAGE,2939-AA/1,Methylcellulose 0.5% / polyoxyethylene sorbitan monooleate (Tween 80) 0.5% / water (w/v/v),10,mL/kg,2018-10-21,13
20214751,EX,20214751-255,464,ACT-709478,250,mg/kg,SOLUTION,QD,ORAL GAVAGE,2939-AA/1,Methylcellulose 0.5% / polyoxyethylene sorbitan monooleate (Tween 80) 0.5% / water (w/v/v),10,mL/kg,2018-10-22,14
20214751,EX,20214751-255,465,ACT-709478,250,mg/kg,SOLUTION,QD,ORAL GAVAGE,2939-AA/1,Methylcellulose 0.5% / polyoxyethylene sorbitan monooleate (Tween 80) 0.5% / water (w/v/v),10,mL/kg,2018-10-23,15
20214751,EX,20214751-255,466,ACT-709478,250,mg/kg,SOLUTION,QD,ORAL GAVAGE,2939-AA/1,Methylcellulose 0.5% / polyoxyethylene sorbitan monooleate (Tween 80) 0.5% / water (w/v/v),10,mL/kg,2018-10-24,16
20214751,EX,20214751-255,467,ACT-709478,250,mg/kg,SOLUTION,QD,ORAL GAVAGE,2939-AA/1,Methylcellulose 0.5% / polyoxyethylene sorbitan monooleate (Tween 80) 0.5% / water (w/v/v),10,mL/kg,2018-10-25,17
20214751,EX,20214751-255,468,ACT-709478,250,mg/kg,SOLUTION,QD,ORAL GAVAGE,2939-AA/1,Methylcellulose 0.5% / polyoxyethylene sorbitan monooleate (Tween 80) 0.5% / water (w/v/v),10,mL/kg,2018-10-26,18
20214751,EX,20214751-255,469,ACT-709478,250,mg/kg,SOLUTION,QD,ORAL GAVAGE,2939-AA/1,Methylcellulose 0.5% / polyoxyethylene sorbitan monooleate (Tween 80) 0.5% / water (w/v/v),10,mL/kg,2018-10-27,19
20214751,EX,20214751-255,470,ACT-709478,250,mg/kg,SOLUTION,QD,ORAL GAVAGE,2939-AA/1,Methylcellulose 0.5% / polyoxyethylene sorbitan monooleate (Tween 80) 0.5% / water (w/v/v),10,mL/kg,2018-10-28,20
20214751,EX,20214751-255,471,ACT-709478,250,mg/kg,SOLUTION,QD,ORAL GAVAGE,2939-AA/1,Methylcellulose 0.5% / polyoxyethylene sorbitan monooleate (Tween 80) 0.5% / water (w/v/v),10,mL/kg,2018-10-29,21
20214751,EX,20214751-255,472,ACT-709478,250,mg/kg,SOLUTION,QD,ORAL GAVAGE,2939-AA/1,Methylcellulose 0.5% / polyoxyethylene sorbitan monooleate (Tween 80) 0.5% / water (w/v/v),10,mL/kg,2018-10-30,22
20214751,EX,20214751-255,473,ACT-709478,250,mg/kg,SOLUTION,QD,ORAL GAVAGE,2939-AA/1,Methylcellulose 0.5% / polyoxyethylene sorbitan monooleate (Tween 80) 0.5% / water (w/v/v),10,mL/kg,2018-10-31,23
20214751,EX,20214751-255,474,ACT-709478,250,mg/kg,SOLUTION,QD,ORAL GAVAGE,2939-AA/1,Methylcellulose 0.5% / polyoxyethylene sorbitan monooleate (Tween 80) 0.5% / water (w/v/v),10,mL/kg,2018-11-01,24
20214751,EX,20214751-255,475,ACT-709478,250,mg/kg,SOLUTION,QD,ORAL GAVAGE,2939-AA/1,Methylcellulose 0.5% / polyoxyethylene sorbitan monooleate (Tween 80) 0.5% / water (w/v/v),10,mL/kg,2018-11-02,25
20214751,EX,20214751-255,476,ACT-709478,250,mg/kg,SOLUTION,QD,ORAL GAVAGE,2939-AA/1,Methylcellulose 0.5% / polyoxyethylene sorbitan monooleate (Tween 80) 0.5% / water (w/v/v),10,mL/kg,2018-11-03,26
20214751,EX,20214751-255,477,ACT-709478,250,mg/kg,SOLUTION,QD,ORAL GAVAGE,2939-AA/1,Methylcellulose 0.5% / polyoxyethylene sorbitan monooleate (Tween 80) 0.5% / water (w/v/v),10,mL/kg,2018-11-04,27
20214751,EX,20214751-255,478,ACT-709478,250,mg/kg,SOLUTION,QD,ORAL GAVAGE,2939-AA/1,Methylcellulose 0.5% / polyoxyethylene sorbitan monooleate (Tween 80) 0.5% / water (w/v/v),10,mL/kg,2018-11-05,28
20214751,EX,20214751-255,479,ACT-709478,250,mg/kg,SOLUTION,QD,ORAL GAVAGE,2939-AA/1,Methylcellulose 0.5% / polyoxyethylene sorbitan monooleate (Tween 80) 0.5% / water (w/v/v),10,mL/kg,2018-11-06,29
20214751,EX,20214751-255,480,ACT-709478,250,mg/kg,SOLUTION,QD,ORAL GAVAGE,2939-AA/1,Methylcellulose 0.5% / polyoxyethylene sorbitan monooleate (Tween 80) 0.5% / water (w/v/v),10,mL/kg,2018-11-07,30
20214751,EX,20214751-255,481,ACT-709478,250,mg/kg,SOLUTION,QD,ORAL GAVAGE,2939-AA/1,Methylcellulose 0.5% / polyoxyethylene sorbitan monooleate (Tween 80) 0.5% / water (w/v/v),10,mL/kg,2018-11-08,31
20214751,EX,20214751-255,482,ACT-709478,250,mg/kg,SOLUTION,QD,ORAL GAVAGE,2939-AA/1,Methylcellulose 0.5% / polyoxyethylene sorbitan monooleate (Tween 80) 0.5% / water (w/v/v),10,mL/kg,2018-11-09,32
20214751,EX,20214751-255,483,ACT-709478,250,mg/kg,SOLUTION,QD,ORAL GAVAGE,2939-AA/1,Methylcellulose 0.5% / polyoxyethylene sorbitan monooleate (Tween 80) 0.5% / water (w/v/v),10,mL/kg,2018-11-10,33
20214751,EX,20214751-255,484,ACT-709478,250,mg/kg,SOLUTION,QD,ORAL GAVAGE,2939-AA/1,Methylcellulose 0.5% / polyoxyethylene sorbitan monooleate (Tween 80) 0.5% / water (w/v/v),10,mL/kg,2018-11-11,34
20214751,EX,20214751-255,485,ACT-709478,250,mg/kg,SOLUTION,QD,ORAL GAVAGE,2939-AA/1,Methylcellulose 0.5% / polyoxyethylene sorbitan monooleate (Tween 80) 0.5% / water (w/v/v),10,mL/kg,2018-11-12,35
20214751,EX,20214751-255,486,ACT-709478,250,mg/kg,SOLUTION,QD,ORAL GAVAGE,2939-AA/1,Methylcellulose 0.5% / polyoxyethylene sorbitan monooleate (Tween 80) 0.5% / water (w/v/v),10,mL/kg,2018-11-13,36
20214751,EX,20214751-255,487,ACT-709478,250,mg/kg,SOLUTION,QD,ORAL GAVAGE,2939-AA/1,Methylcellulose 0.5% / polyoxyethylene sorbitan monooleate (Tween 80) 0.5% / water (w/v/v),10,mL/kg,2018-11-14,37
20214751,EX,20214751-255,488,ACT-709478,250,mg/kg,SOLUTION,QD,ORAL GAVAGE,2939-AA/1,Methylcellulose 0.5% / polyoxyethylene sorbitan monooleate (Tween 80) 0.5% / water (w/v/v),10,mL/kg,2018-11-15,38
20214751,EX,20214751-255,489,ACT-709478,250,mg/kg,SOLUTION,QD,ORAL GAVAGE,2939-AA/1,Methylcellulose 0.5% / polyoxyethylene sorbitan monooleate (Tween 80) 0.5% / water (w/v/v),10,mL/kg,2018-11-16,39
20214751,EX,20214751-255,490,ACT-709478,250,mg/kg,SOLUTION,QD,ORAL GAVAGE,2939-AA/1,Methylcellulose 0.5% / polyoxyethylene sorbitan monooleate (Tween 80) 0.5% / water (w/v/v),10,mL/kg,2018-11-17,40
20214751,EX,20214751-255,491,ACT-709478,250,mg/kg,SOLUTION,QD,ORAL GAVAGE,2939-AA/1,Methylcellulose 0.5% / polyoxyethylene sorbitan monooleate (Tween 80) 0.5% / water (w/v/v),10,mL/kg,2018-11-18,41
20214751,EX,20214751-255,492,ACT-709478,250,mg/kg,SOLUTION,QD,ORAL GAVAGE,2939-AA/1,Methylcellulose 0.5% / polyoxyethylene sorbitan monooleate (Tween 80) 0.5% / water (w/v/v),10,mL/kg,2018-11-19,42
20214751,EX,20214751-255,493,ACT-709478,250,mg/kg,SOLUTION,QD,ORAL GAVAGE,2939-AA/1,Methylcellulose 0.5% / polyoxyethylene sorbitan monooleate (Tween 80) 0.5% / water (w/v/v),10,mL/kg,2018-11-20,43
20214751,EX,20214751-255,494,ACT-709478,250,mg/kg,SOLUTION,QD,ORAL GAVAGE,2939-AA/1,Methylcellulose 0.5% / polyoxyethylene sorbitan monooleate (Tween 80) 0.5% / water (w/v/v),10,mL/kg,2018-11-21,44
20214751,EX,20214751-255,495,ACT-709478,250,mg/kg,SOLUTION,QD,ORAL GAVAGE,2939-AA/1,Methylcellulose 0.5% / polyoxyethylene sorbitan monooleate (Tween 80) 0.5% / water (w/v/v),10,mL/kg,2018-11-22,45
20214751,EX,20214751-256,496,ACT-709478,250,mg/kg,SOLUTION,QD,ORAL GAVAGE,2939-AA/1,Methylcellulose 0.5% / polyoxyethylene sorbitan monooleate (Tween 80) 0.5% / water (w/v/v),10,mL/kg,2018-10-09,1
20214751,EX,20214751-256,497,ACT-709478,250,mg/kg,SOLUTION,QD,ORAL GAVAGE,2939-AA/1,Methylcellulose 0.5% / polyoxyethylene sorbitan monooleate (Tween 80) 0.5% / water (w/v/v),10,mL/kg,2018-10-10,2
20214751,EX,20214751-256,498,ACT-709478,250,mg/kg,SOLUTION,QD,ORAL GAVAGE,2939-AA/1,Methylcellulose 0.5% / polyoxyethylene sorbitan monooleate (Tween 80) 0.5% / water (w/v/v),10,mL/kg,2018-10-11,3
20214751,EX,20214751-256,499,ACT-709478,250,mg/kg,SOLUTION,QD,ORAL GAVAGE,2939-AA/1,Methylcellulose 0.5% / polyoxyethylene sorbitan monooleate (Tween 80) 0.5% / water (w/v/v),10,mL/kg,2018-10-12,4
20214751,EX,20214751-256,500,ACT-709478,250,mg/kg,SOLUTION,QD,ORAL GAVAGE,2939-AA/1,Methylcellulose 0.5% / polyoxyethylene sorbitan monooleate (Tween 80) 0.5% / water (w/v/v),10,mL/kg,2018-10-13,5
20214751,EX,20214751-256,501,ACT-709478,250,mg/kg,SOLUTION,QD,ORAL GAVAGE,2939-AA/1,Methylcellulose 0.5% / polyoxyethylene sorbitan monooleate (Tween 80) 0.5% / water (w/v/v),10,mL/kg,2018-10-14,6
20214751,EX,20214751-256,502,ACT-709478,250,mg/kg,SOLUTION,QD,ORAL GAVAGE,2939-AA/1,Methylcellulose 0.5% / polyoxyethylene sorbitan monooleate (Tween 80) 0.5% / water (w/v/v),10,mL/kg,2018-10-15,7
20214751,EX,20214751-256,503,ACT-709478,250,mg/kg,SOLUTION,QD,ORAL GAVAGE,2939-AA/1,Methylcellulose 0.5% / polyoxyethylene sorbitan monooleate (Tween 80) 0.5% / water (w/v/v),10,mL/kg,2018-10-16,8
20214751,EX,20214751-256,504,ACT-709478,250,mg/kg,SOLUTION,QD,ORAL GAVAGE,2939-AA/1,Methylcellulose 0.5% / polyoxyethylene sorbitan monooleate (Tween 80) 0.5% / water (w/v/v),10,mL/kg,2018-10-17,9
20214751,EX,20214751-256,505,ACT-709478,250,mg/kg,SOLUTION,QD,ORAL GAVAGE,2939-AA/1,Methylcellulose 0.5% / polyoxyethylene sorbitan monooleate (Tween 80) 0.5% / water (w/v/v),10,mL/kg,2018-10-18,10
20214751,EX,20214751-256,506,ACT-709478,250,mg/kg,SOLUTION,QD,ORAL GAVAGE,2939-AA/1,Methylcellulose 0.5% / polyoxyethylene sorbitan monooleate (Tween 80) 0.5% / water (w/v/v),10,mL/kg,2018-10-19,11
20214751,EX,20214751-256,507,ACT-709478,250,mg/kg,SOLUTION,QD,ORAL GAVAGE,2939-AA/1,Methylcellulose 0.5% / polyoxyethylene sorbitan monooleate (Tween 80) 0.5% / water (w/v/v),10,mL/kg,2018-10-20,12
20214751,EX,20214751-256,508,ACT-709478,250,mg/kg,SOLUTION,QD,ORAL GAVAGE,2939-AA/1,Methylcellulose 0.5% / polyoxyethylene sorbitan monooleate (Tween 80) 0.5% / water (w/v/v),10,mL/kg,2018-10-21,13
20214751,EX,20214751-256,509,ACT-709478,250,mg/kg,SOLUTION,QD,ORAL GAVAGE,2939-AA/1,Methylcellulose 0.5% / polyoxyethylene sorbitan monooleate (Tween 80) 0.5% / water (w/v/v),10,mL/kg,2018-10-22,14
20214751,EX,20214751-256,510,ACT-709478,250,mg/kg,SOLUTION,QD,ORAL GAVAGE,2939-AA/1,Methylcellulose 0.5% / polyoxyethylene sorbitan monooleate (Tween 80) 0.5% / water (w/v/v),10,mL/kg,2018-10-23,15
20214751,EX,20214751-256,511,ACT-709478,250,mg/kg,SOLUTION,QD,ORAL GAVAGE,2939-AA/1,Methylcellulose 0.5% / polyoxyethylene sorbitan monooleate (Tween 80) 0.5% / water (w/v/v),10,mL/kg,2018-10-24,16
20214751,EX,20214751-256,512,ACT-709478,250,mg/kg,SOLUTION,QD,ORAL GAVAGE,2939-AA/1,Methylcellulose 0.5% / polyoxyethylene sorbitan monooleate (Tween 80) 0.5% / water (w/v/v),10,mL/kg,2018-10-25,17
20214751,EX,20214751-256,513,ACT-709478,250,mg/kg,SOLUTION,QD,ORAL GAVAGE,2939-AA/1,Methylcellulose 0.5% / polyoxyethylene sorbitan monooleate (Tween 80) 0.5% / water (w/v/v),10,mL/kg,2018-10-26,18
20214751,EX,20214751-256,514,ACT-709478,250,mg/kg,SOLUTION,QD,ORAL GAVAGE,2939-AA/1,Methylcellulose 0.5% / polyoxyethylene sorbitan monooleate (Tween 80) 0.5% / water (w/v/v),10,mL/kg,2018-10-27,19
20214751,EX,20214751-256,515,ACT-709478,250,mg/kg,SOLUTION,QD,ORAL GAVAGE,2939-AA/1,Methylcellulose 0.5% / polyoxyethylene sorbitan monooleate (Tween 80) 0.5% / water (w/v/v),10,mL/kg,2018-10-28,20
20214751,EX,20214751-256,516,ACT-709478,250,mg/kg,SOLUTION,QD,ORAL GAVAGE,2939-AA/1,Methylcellulose 0.5% / polyoxyethylene sorbitan monooleate (Tween 80) 0.5% / water (w/v/v),10,mL/kg,2018-10-29,21
20214751,EX,20214751-256,517,ACT-709478,250,mg/kg,SOLUTION,QD,ORAL GAVAGE,2939-AA/1,Methylcellulose 0.5% / polyoxyethylene sorbitan monooleate (Tween 80) 0.5% / water (w/v/v),10,mL/kg,2018-10-30,22
20214751,EX,20214751-256,518,ACT-709478,250,mg/kg,SOLUTION,QD,ORAL GAVAGE,2939-AA/1,Methylcellulose 0.5% / polyoxyethylene sorbitan monooleate (Tween 80) 0.5% / water (w/v/v),10,mL/kg,2018-10-31,23
20214751,EX,20214751-256,519,ACT-709478,250,mg/kg,SOLUTION,QD,ORAL GAVAGE,2939-AA/1,Methylcellulose 0.5% / polyoxyethylene sorbitan monooleate (Tween 80) 0.5% / water (w/v/v),10,mL/kg,2018-11-01,24
20214751,EX,20214751-256,520,ACT-709478,250,mg/kg,SOLUTION,QD,ORAL GAVAGE,2939-AA/1,Methylcellulose 0.5% / polyoxyethylene sorbitan monooleate (Tween 80) 0.5% / water (w/v/v),10,mL/kg,2018-11-02,25
20214751,EX,20214751-256,521,ACT-709478,250,mg/kg,SOLUTION,QD,ORAL GAVAGE,2939-AA/1,Methylcellulose 0.5% / polyoxyethylene sorbitan monooleate (Tween 80) 0.5% / water (w/v/v),10,mL/kg,2018-11-03,26
20214751,EX,20214751-256,522,ACT-709478,250,mg/kg,SOLUTION,QD,ORAL GAVAGE,2939-AA/1,Methylcellulose 0.5% / polyoxyethylene sorbitan monooleate (Tween 80) 0.5% / water (w/v/v),10,mL/kg,2018-11-04,27
20214751,EX,20214751-256,523,ACT-709478,250,mg/kg,SOLUTION,QD,ORAL GAVAGE,2939-AA/1,Methylcellulose 0.5% / polyoxyethylene sorbitan monooleate (Tween 80) 0.5% / water (w/v/v),10,mL/kg,2018-11-05,28
20214751,EX,20214751-256,524,ACT-709478,250,mg/kg,SOLUTION,QD,ORAL GAVAGE,2939-AA/1,Methylcellulose 0.5% / polyoxyethylene sorbitan monooleate (Tween 80) 0.5% / water (w/v/v),10,mL/kg,2018-11-06,29
20214751,EX,20214751-256,525,ACT-709478,250,mg/kg,SOLUTION,QD,ORAL GAVAGE,2939-AA/1,Methylcellulose 0.5% / polyoxyethylene sorbitan monooleate (Tween 80) 0.5% / water (w/v/v),10,mL/kg,2018-11-07,30
20214751,EX,20214751-256,526,ACT-709478,250,mg/kg,SOLUTION,QD,ORAL GAVAGE,2939-AA/1,Methylcellulose 0.5% / polyoxyethylene sorbitan monooleate (Tween 80) 0.5% / water (w/v/v),10,mL/kg,2018-11-08,31
20214751,EX,20214751-256,527,ACT-709478,250,mg/kg,SOLUTION,QD,ORAL GAVAGE,2939-AA/1,Methylcellulose 0.5% / polyoxyethylene sorbitan monooleate (Tween 80) 0.5% / water (w/v/v),10,mL/kg,2018-11-09,32
20214751,EX,20214751-256,528,ACT-709478,250,mg/kg,SOLUTION,QD,ORAL GAVAGE,2939-AA/1,Methylcellulose 0.5% / polyoxyethylene sorbitan monooleate (Tween 80) 0.5% / water (w/v/v),10,mL/kg,2018-11-10,33
20214751,EX,20214751-256,529,ACT-709478,250,mg/kg,SOLUTION,QD,ORAL GAVAGE,2939-AA/1,Methylcellulose 0.5% / polyoxyethylene sorbitan monooleate (Tween 80) 0.5% / water (w/v/v),10,mL/kg,2018-11-11,34
20214751,EX,20214751-256,530,ACT-709478,250,mg/kg,SOLUTION,QD,ORAL GAVAGE,2939-AA/1,Methylcellulose 0.5% / polyoxyethylene sorbitan monooleate (Tween 80) 0.5% / water (w/v/v),10,mL/kg,2018-11-12,35
20214751,EX,20214751-256,531,ACT-709478,250,mg/kg,SOLUTION,QD,ORAL GAVAGE,2939-AA/1,Methylcellulose 0.5% / polyoxyethylene sorbitan monooleate (Tween 80) 0.5% / water (w/v/v),10,mL/kg,2018-11-13,36
20214751,EX,20214751-256,532,ACT-709478,250,mg/kg,SOLUTION,QD,ORAL GAVAGE,2939-AA/1,Methylcellulose 0.5% / polyoxyethylene sorbitan monooleate (Tween 80) 0.5% / water (w/v/v),10,mL/kg,2018-11-14,37
20214751,EX,20214751-256,533,ACT-709478,250,mg/kg,SOLUTION,QD,ORAL GAVAGE,2939-AA/1,Methylcellulose 0.5% / polyoxyethylene sorbitan monooleate (Tween 80) 0.5% / water (w/v/v),10,mL/kg,2018-11-15,38
20214751,EX,20214751-256,534,ACT-709478,250,mg/kg,SOLUTION,QD,ORAL GAVAGE,2939-AA/1,Methylcellulose 0.5% / polyoxyethylene sorbitan monooleate (Tween 80) 0.5% / water (w/v/v),10,mL/kg,2018-11-16,39
20214751,EX,20214751-256,535,ACT-709478,250,mg/kg,SOLUTION,QD,ORAL GAVAGE,2939-AA/1,Methylcellulose 0.5% / polyoxyethylene sorbitan monooleate (Tween 80) 0.5% / water (w/v/v),10,mL/kg,2018-11-17,40
20214751,EX,20214751-256,536,ACT-709478,250,mg/kg,SOLUTION,QD,ORAL GAVAGE,2939-AA/1,Methylcellulose 0.5% / polyoxyethylene sorbitan monooleate (Tween 80) 0.5% / water (w/v/v),10,mL/kg,2018-11-18,41
20214751,EX,20214751-256,537,ACT-709478,250,mg/kg,SOLUTION,QD,ORAL GAVAGE,2939-AA/1,Methylcellulose 0.5% / polyoxyethylene sorbitan monooleate (Tween 80) 0.5% / water (w/v/v),10,mL/kg,2018-11-19,42
20214751,EX,20214751-256,538,ACT-709478,250,mg/kg,SOLUTION,QD,ORAL GAVAGE,2939-AA/1,Methylcellulose 0.5% / polyoxyethylene sorbitan monooleate (Tween 80) 0.5% / water (w/v/v),10,mL/kg,2018-11-20,43
20214751,EX,20214751-256,539,ACT-709478,250,mg/kg,SOLUTION,QD,ORAL GAVAGE,2939-AA/1,Methylcellulose 0.5% / polyoxyethylene sorbitan monooleate (Tween 80) 0.5% / water (w/v/v),10,mL/kg,2018-11-21,44
20214751,EX,20214751-256,540,ACT-709478,250,mg/kg,SOLUTION,QD,ORAL GAVAGE,2939-AA/1,Methylcellulose 0.5% / polyoxyethylene sorbitan monooleate (Tween 80) 0.5% / water (w/v/v),10,mL/kg,2018-11-22,45
20214751,EX,20214751-351,541,ACT-709478,250,mg/kg,SOLUTION,QD,ORAL GAVAGE,2939-AA/1,Methylcellulose 0.5% / polyoxyethylene sorbitan monooleate (Tween 80) 0.5% / water (w/v/v),10,mL/kg,2018-10-09,1
20214751,EX,20214751-351,542,ACT-709478,250,mg/kg,SOLUTION,QD,ORAL GAVAGE,2939-AA/1,Methylcellulose 0.5% / polyoxyethylene sorbitan monooleate (Tween 80) 0.5% / water (w/v/v),10,mL/kg,2018-10-10,2
20214751,EX,20214751-351,543,ACT-709478,250,mg/kg,SOLUTION,QD,ORAL GAVAGE,2939-AA/1,Methylcellulose 0.5% / polyoxyethylene sorbitan monooleate (Tween 80) 0.5% / water (w/v/v),10,mL/kg,2018-10-11,3
20214751,EX,20214751-351,544,ACT-709478,250,mg/kg,SOLUTION,QD,ORAL GAVAGE,2939-AA/1,Methylcellulose 0.5% / polyoxyethylene sorbitan monooleate (Tween 80) 0.5% / water (w/v/v),10,mL/kg,2018-10-12,4
20214751,EX,20214751-351,545,ACT-709478,250,mg/kg,SOLUTION,QD,ORAL GAVAGE,2939-AA/1,Methylcellulose 0.5% / polyoxyethylene sorbitan monooleate (Tween 80) 0.5% / water (w/v/v),10,mL/kg,2018-10-13,5
20214751,EX,20214751-351,546,ACT-709478,250,mg/kg,SOLUTION,QD,ORAL GAVAGE,2939-AA/1,Methylcellulose 0.5% / polyoxyethylene sorbitan monooleate (Tween 80) 0.5% / water (w/v/v),10,mL/kg,2018-10-14,6
20214751,EX,20214751-351,547,ACT-709478,250,mg/kg,SOLUTION,QD,ORAL GAVAGE,2939-AA/1,Methylcellulose 0.5% / polyoxyethylene sorbitan monooleate (Tween 80) 0.5% / water (w/v/v),10,mL/kg,2018-10-15,7
20214751,EX,20214751-351,548,ACT-709478,250,mg/kg,SOLUTION,QD,ORAL GAVAGE,2939-AA/1,Methylcellulose 0.5% / polyoxyethylene sorbitan monooleate (Tween 80) 0.5% / water (w/v/v),10,mL/kg,2018-10-16,8
20214751,EX,20214751-351,549,ACT-709478,250,mg/kg,SOLUTION,QD,ORAL GAVAGE,2939-AA/1,Methylcellulose 0.5% / polyoxyethylene sorbitan monooleate (Tween 80) 0.5% / water (w/v/v),10,mL/kg,2018-10-17,9
20214751,EX,20214751-351,550,ACT-709478,250,mg/kg,SOLUTION,QD,ORAL GAVAGE,2939-AA/1,Methylcellulose 0.5% / polyoxyethylene sorbitan monooleate (Tween 80) 0.5% / water (w/v/v),10,mL/kg,2018-10-18,10
20214751,EX,20214751-351,551,ACT-709478,250,mg/kg,SOLUTION,QD,ORAL GAVAGE,2939-AA/1,Methylcellulose 0.5% / polyoxyethylene sorbitan monooleate (Tween 80) 0.5% / water (w/v/v),10,mL/kg,2018-10-19,11
20214751,EX,20214751-351,552,ACT-709478,250,mg/kg,SOLUTION,QD,ORAL GAVAGE,2939-AA/1,Methylcellulose 0.5% / polyoxyethylene sorbitan monooleate (Tween 80) 0.5% / water (w/v/v),10,mL/kg,2018-10-20,12
20214751,EX,20214751-351,553,ACT-709478,250,mg/kg,SOLUTION,QD,ORAL GAVAGE,2939-AA/1,Methylcellulose 0.5% / polyoxyethylene sorbitan monooleate (Tween 80) 0.5% / water (w/v/v),10,mL/kg,2018-10-21,13
20214751,EX,20214751-351,554,ACT-709478,250,mg/kg,SOLUTION,QD,ORAL GAVAGE,2939-AA/1,Methylcellulose 0.5% / polyoxyethylene sorbitan monooleate (Tween 80) 0.5% / water (w/v/v),10,mL/kg,2018-10-22,14
20214751,EX,20214751-351,555,ACT-709478,250,mg/kg,SOLUTION,QD,ORAL GAVAGE,2939-AA/1,Methylcellulose 0.5% / polyoxyethylene sorbitan monooleate (Tween 80) 0.5% / water (w/v/v),10,mL/kg,2018-10-23,15
20214751,EX,20214751-351,556,ACT-709478,250,mg/kg,SOLUTION,QD,ORAL GAVAGE,2939-AA/1,Methylcellulose 0.5% / polyoxyethylene sorbitan monooleate (Tween 80) 0.5% / water (w/v/v),10,mL/kg,2018-10-24,16
20214751,EX,20214751-351,557,ACT-709478,250,mg/kg,SOLUTION,QD,ORAL GAVAGE,2939-AA/1,Methylcellulose 0.5% / polyoxyethylene sorbitan monooleate (Tween 80) 0.5% / water (w/v/v),10,mL/kg,2018-10-25,17
20214751,EX,20214751-351,558,ACT-709478,250,mg/kg,SOLUTION,QD,ORAL GAVAGE,2939-AA/1,Methylcellulose 0.5% / polyoxyethylene sorbitan monooleate (Tween 80) 0.5% / water (w/v/v),10,mL/kg,2018-10-26,18
20214751,EX,20214751-351,559,ACT-709478,250,mg/kg,SOLUTION,QD,ORAL GAVAGE,2939-AA/1,Methylcellulose 0.5% / polyoxyethylene sorbitan monooleate (Tween 80) 0.5% / water (w/v/v),10,mL/kg,2018-10-27,19
20214751,EX,20214751-351,560,ACT-709478,250,mg/kg,SOLUTION,QD,ORAL GAVAGE,2939-AA/1,Methylcellulose 0.5% / polyoxyethylene sorbitan monooleate (Tween 80) 0.5% / water (w/v/v),10,mL/kg,2018-10-28,20
20214751,EX,20214751-351,561,ACT-709478,250,mg/kg,SOLUTION,QD,ORAL GAVAGE,2939-AA/1,Methylcellulose 0.5% / polyoxyethylene sorbitan monooleate (Tween 80) 0.5% / water (w/v/v),10,mL/kg,2018-10-29,21
20214751,EX,20214751-351,562,ACT-709478,250,mg/kg,SOLUTION,QD,ORAL GAVAGE,2939-AA/1,Methylcellulose 0.5% / polyoxyethylene sorbitan monooleate (Tween 80) 0.5% / water (w/v/v),10,mL/kg,2018-10-30,22
20214751,EX,20214751-351,563,ACT-709478,250,mg/kg,SOLUTION,QD,ORAL GAVAGE,2939-AA/1,Methylcellulose 0.5% / polyoxyethylene sorbitan monooleate (Tween 80) 0.5% / water (w/v/v),10,mL/kg,2018-10-31,23
20214751,EX,20214751-351,564,ACT-709478,250,mg/kg,SOLUTION,QD,ORAL GAVAGE,2939-AA/1,Methylcellulose 0.5% / polyoxyethylene sorbitan monooleate (Tween 80) 0.5% / water (w/v/v),10,mL/kg,2018-11-01,24
20214751,EX,20214751-351,565,ACT-709478,250,mg/kg,SOLUTION,QD,ORAL GAVAGE,2939-AA/1,Methylcellulose 0.5% / polyoxyethylene sorbitan monooleate (Tween 80) 0.5% / water (w/v/v),10,mL/kg,2018-11-02,25
20214751,EX,20214751-351,566,ACT-709478,250,mg/kg,SOLUTION,QD,ORAL GAVAGE,2939-AA/1,Methylcellulose 0.5% / polyoxyethylene sorbitan monooleate (Tween 80) 0.5% / water (w/v/v),10,mL/kg,2018-11-03,26
20214751,EX,20214751-351,567,ACT-709478,250,mg/kg,SOLUTION,QD,ORAL GAVAGE,2939-AA/1,Methylcellulose 0.5% / polyoxyethylene sorbitan monooleate (Tween 80) 0.5% / water (w/v/v),10,mL/kg,2018-11-04,27
20214751,EX,20214751-351,568,ACT-709478,250,mg/kg,SOLUTION,QD,ORAL GAVAGE,2939-AA/1,Methylcellulose 0.5% / polyoxyethylene sorbitan monooleate (Tween 80) 0.5% / water (w/v/v),10,mL/kg,2018-11-05,28
20214751,EX,20214751-351,569,ACT-709478,250,mg/kg,SOLUTION,QD,ORAL GAVAGE,2939-AA/1,Methylcellulose 0.5% / polyoxyethylene sorbitan monooleate (Tween 80) 0.5% / water (w/v/v),10,mL/kg,2018-11-06,29
20214751,EX,20214751-351,570,ACT-709478,250,mg/kg,SOLUTION,QD,ORAL GAVAGE,2939-AA/1,Methylcellulose 0.5% / polyoxyethylene sorbitan monooleate (Tween 80) 0.5% / water (w/v/v),10,mL/kg,2018-11-07,30
20214751,EX,20214751-351,571,ACT-709478,250,mg/kg,SOLUTION,QD,ORAL GAVAGE,2939-AA/1,Methylcellulose 0.5% / polyoxyethylene sorbitan monooleate (Tween 80) 0.5% / water (w/v/v),10,mL/kg,2018-11-08,31
20214751,EX,20214751-351,572,ACT-709478,250,mg/kg,SOLUTION,QD,ORAL GAVAGE,2939-AA/1,Methylcellulose 0.5% / polyoxyethylene sorbitan monooleate (Tween 80) 0.5% / water (w/v/v),10,mL/kg,2018-11-09,32
20214751,EX,20214751-351,573,ACT-709478,250,mg/kg,SOLUTION,QD,ORAL GAVAGE,2939-AA/1,Methylcellulose 0.5% / polyoxyethylene sorbitan monooleate (Tween 80) 0.5% / water (w/v/v),10,mL/kg,2018-11-10,33
20214751,EX,20214751-351,574,ACT-709478,250,mg/kg,SOLUTION,QD,ORAL GAVAGE,2939-AA/1,Methylcellulose 0.5% / polyoxyethylene sorbitan monooleate (Tween 80) 0.5% / water (w/v/v),10,mL/kg,2018-11-11,34
20214751,EX,20214751-351,575,ACT-709478,250,mg/kg,SOLUTION,QD,ORAL GAVAGE,2939-AA/1,Methylcellulose 0.5% / polyoxyethylene sorbitan monooleate (Tween 80) 0.5% / water (w/v/v),10,mL/kg,2018-11-12,35
20214751,EX,20214751-351,576,ACT-709478,250,mg/kg,SOLUTION,QD,ORAL GAVAGE,2939-AA/1,Methylcellulose 0.5% / polyoxyethylene sorbitan monooleate (Tween 80) 0.5% / water (w/v/v),10,mL/kg,2018-11-13,36
20214751,EX,20214751-351,577,ACT-709478,250,mg/kg,SOLUTION,QD,ORAL GAVAGE,2939-AA/1,Methylcellulose 0.5% / polyoxyethylene sorbitan monooleate (Tween 80) 0.5% / water (w/v/v),10,mL/kg,2018-11-14,37
20214751,EX,20214751-351,578,ACT-709478,250,mg/kg,SOLUTION,QD,ORAL GAVAGE,2939-AA/1,Methylcellulose 0.5% / polyoxyethylene sorbitan monooleate (Tween 80) 0.5% / water (w/v/v),10,mL/kg,2018-11-15,38
20214751,EX,20214751-351,579,ACT-709478,250,mg/kg,SOLUTION,QD,ORAL GAVAGE,2939-AA/1,Methylcellulose 0.5% / polyoxyethylene sorbitan monooleate (Tween 80) 0.5% / water (w/v/v),10,mL/kg,2018-11-16,39
20214751,EX,20214751-351,580,ACT-709478,250,mg/kg,SOLUTION,QD,ORAL GAVAGE,2939-AA/1,Methylcellulose 0.5% / polyoxyethylene sorbitan monooleate (Tween 80) 0.5% / water (w/v/v),10,mL/kg,2018-11-17,40
20214751,EX,20214751-351,581,ACT-709478,250,mg/kg,SOLUTION,QD,ORAL GAVAGE,2939-AA/1,Methylcellulose 0.5% / polyoxyethylene sorbitan monooleate (Tween 80) 0.5% / water (w/v/v),10,mL/kg,2018-11-18,41
20214751,EX,20214751-351,582,ACT-709478,250,mg/kg,SOLUTION,QD,ORAL GAVAGE,2939-AA/1,Methylcellulose 0.5% / polyoxyethylene sorbitan monooleate (Tween 80) 0.5% / water (w/v/v),10,mL/kg,2018-11-19,42
20214751,EX,20214751-351,583,ACT-709478,250,mg/kg,SOLUTION,QD,ORAL GAVAGE,2939-AA/1,Methylcellulose 0.5% / polyoxyethylene sorbitan monooleate (Tween 80) 0.5% / water (w/v/v),10,mL/kg,2018-11-20,43
20214751,EX,20214751-351,584,ACT-709478,250,mg/kg,SOLUTION,QD,ORAL GAVAGE,2939-AA/1,Methylcellulose 0.5% / polyoxyethylene sorbitan monooleate (Tween 80) 0.5% / water (w/v/v),10,mL/kg,2018-11-21,44
20214751,EX,20214751-351,585,ACT-709478,250,mg/kg,SOLUTION,QD,ORAL GAVAGE,2939-AA/1,Methylcellulose 0.5% / polyoxyethylene sorbitan monooleate (Tween 80) 0.5% / water (w/v/v),10,mL/kg,2018-11-22,45
20214751,EX,20214751-352,586,ACT-709478,250,mg/kg,SOLUTION,QD,ORAL GAVAGE,2939-AA/1,Methylcellulose 0.5% / polyoxyethylene sorbitan monooleate (Tween 80) 0.5% / water (w/v/v),10,mL/kg,2018-10-09,1
20214751,EX,20214751-352,587,ACT-709478,250,mg/kg,SOLUTION,QD,ORAL GAVAGE,2939-AA/1,Methylcellulose 0.5% / polyoxyethylene sorbitan monooleate (Tween 80) 0.5% / water (w/v/v),10,mL/kg,2018-10-10,2
20214751,EX,20214751-352,588,ACT-709478,250,mg/kg,SOLUTION,QD,ORAL GAVAGE,2939-AA/1,Methylcellulose 0.5% / polyoxyethylene sorbitan monooleate (Tween 80) 0.5% / water (w/v/v),10,mL/kg,2018-10-11,3
20214751,EX,20214751-352,589,ACT-709478,250,mg/kg,SOLUTION,QD,ORAL GAVAGE,2939-AA/1,Methylcellulose 0.5% / polyoxyethylene sorbitan monooleate (Tween 80) 0.5% / water (w/v/v),10,mL/kg,2018-10-12,4
20214751,EX,20214751-352,590,ACT-709478,250,mg/kg,SOLUTION,QD,ORAL GAVAGE,2939-AA/1,Methylcellulose 0.5% / polyoxyethylene sorbitan monooleate (Tween 80) 0.5% / water (w/v/v),10,mL/kg,2018-10-13,5
20214751,EX,20214751-352,591,ACT-709478,250,mg/kg,SOLUTION,QD,ORAL GAVAGE,2939-AA/1,Methylcellulose 0.5% / polyoxyethylene sorbitan monooleate (Tween 80) 0.5% / water (w/v/v),10,mL/kg,2018-10-14,6
20214751,EX,20214751-352,592,ACT-709478,250,mg/kg,SOLUTION,QD,ORAL GAVAGE,2939-AA/1,Methylcellulose 0.5% / polyoxyethylene sorbitan monooleate (Tween 80) 0.5% / water (w/v/v),10,mL/kg,2018-10-15,7
20214751,EX,20214751-352,593,ACT-709478,250,mg/kg,SOLUTION,QD,ORAL GAVAGE,2939-AA/1,Methylcellulose 0.5% / polyoxyethylene sorbitan monooleate (Tween 80) 0.5% / water (w/v/v),10,mL/kg,2018-10-16,8
20214751,EX,20214751-352,594,ACT-709478,250,mg/kg,SOLUTION,QD,ORAL GAVAGE,2939-AA/1,Methylcellulose 0.5% / polyoxyethylene sorbitan monooleate (Tween 80) 0.5% / water (w/v/v),10,mL/kg,2018-10-17,9
20214751,EX,20214751-352,595,ACT-709478,250,mg/kg,SOLUTION,QD,ORAL GAVAGE,2939-AA/1,Methylcellulose 0.5% / polyoxyethylene sorbitan monooleate (Tween 80) 0.5% / water (w/v/v),10,mL/kg,2018-10-18,10
20214751,EX,20214751-352,596,ACT-709478,250,mg/kg,SOLUTION,QD,ORAL GAVAGE,2939-AA/1,Methylcellulose 0.5% / polyoxyethylene sorbitan monooleate (Tween 80) 0.5% / water (w/v/v),10,mL/kg,2018-10-19,11
20214751,EX,20214751-352,597,ACT-709478,250,mg/kg,SOLUTION,QD,ORAL GAVAGE,2939-AA/1,Methylcellulose 0.5% / polyoxyethylene sorbitan monooleate (Tween 80) 0.5% / water (w/v/v),10,mL/kg,2018-10-20,12
20214751,EX,20214751-352,598,ACT-709478,250,mg/kg,SOLUTION,QD,ORAL GAVAGE,2939-AA/1,Methylcellulose 0.5% / polyoxyethylene sorbitan monooleate (Tween 80) 0.5% / water (w/v/v),10,mL/kg,2018-10-21,13
20214751,EX,20214751-352,599,ACT-709478,250,mg/kg,SOLUTION,QD,ORAL GAVAGE,2939-AA/1,Methylcellulose 0.5% / polyoxyethylene sorbitan monooleate (Tween 80) 0.5% / water (w/v/v),10,mL/kg,2018-10-22,14
20214751,EX,20214751-352,600,ACT-709478,250,mg/kg,SOLUTION,QD,ORAL GAVAGE,2939-AA/1,Methylcellulose 0.5% / polyoxyethylene sorbitan monooleate (Tween 80) 0.5% / water (w/v/v),10,mL/kg,2018-10-23,15
20214751,EX,20214751-352,601,ACT-709478,250,mg/kg,SOLUTION,QD,ORAL GAVAGE,2939-AA/1,Methylcellulose 0.5% / polyoxyethylene sorbitan monooleate (Tween 80) 0.5% / water (w/v/v),10,mL/kg,2018-10-24,16
20214751,EX,20214751-352,602,ACT-709478,250,mg/kg,SOLUTION,QD,ORAL GAVAGE,2939-AA/1,Methylcellulose 0.5% / polyoxyethylene sorbitan monooleate (Tween 80) 0.5% / water (w/v/v),10,mL/kg,2018-10-25,17
20214751,EX,20214751-352,603,ACT-709478,250,mg/kg,SOLUTION,QD,ORAL GAVAGE,2939-AA/1,Methylcellulose 0.5% / polyoxyethylene sorbitan monooleate (Tween 80) 0.5% / water (w/v/v),10,mL/kg,2018-10-26,18
20214751,EX,20214751-352,604,ACT-709478,250,mg/kg,SOLUTION,QD,ORAL GAVAGE,2939-AA/1,Methylcellulose 0.5% / polyoxyethylene sorbitan monooleate (Tween 80) 0.5% / water (w/v/v),10,mL/kg,2018-10-27,19
20214751,EX,20214751-352,605,ACT-709478,250,mg/kg,SOLUTION,QD,ORAL GAVAGE,2939-AA/1,Methylcellulose 0.5% / polyoxyethylene sorbitan monooleate (Tween 80) 0.5% / water (w/v/v),10,mL/kg,2018-10-28,20
20214751,EX,20214751-352,606,ACT-709478,250,mg/kg,SOLUTION,QD,ORAL GAVAGE,2939-AA/1,Methylcellulose 0.5% / polyoxyethylene sorbitan monooleate (Tween 80) 0.5% / water (w/v/v),10,mL/kg,2018-10-29,21
20214751,EX,20214751-352,607,ACT-709478,250,mg/kg,SOLUTION,QD,ORAL GAVAGE,2939-AA/1,Methylcellulose 0.5% / polyoxyethylene sorbitan monooleate (Tween 80) 0.5% / water (w/v/v),10,mL/kg,2018-10-30,22
20214751,EX,20214751-352,608,ACT-709478,250,mg/kg,SOLUTION,QD,ORAL GAVAGE,2939-AA/1,Methylcellulose 0.5% / polyoxyethylene sorbitan monooleate (Tween 80) 0.5% / water (w/v/v),10,mL/kg,2018-10-31,23
20214751,EX,20214751-352,609,ACT-709478,250,mg/kg,SOLUTION,QD,ORAL GAVAGE,2939-AA/1,Methylcellulose 0.5% / polyoxyethylene sorbitan monooleate (Tween 80) 0.5% / water (w/v/v),10,mL/kg,2018-11-01,24
20214751,EX,20214751-352,610,ACT-709478,250,mg/kg,SOLUTION,QD,ORAL GAVAGE,2939-AA/1,Methylcellulose 0.5% / polyoxyethylene sorbitan monooleate (Tween 80) 0.5% / water (w/v/v),10,mL/kg,2018-11-02,25
20214751,EX,20214751-352,611,ACT-709478,250,mg/kg,SOLUTION,QD,ORAL GAVAGE,2939-AA/1,Methylcellulose 0.5% / polyoxyethylene sorbitan monooleate (Tween 80) 0.5% / water (w/v/v),10,mL/kg,2018-11-03,26
20214751,EX,20214751-352,612,ACT-709478,250,mg/kg,SOLUTION,QD,ORAL GAVAGE,2939-AA/1,Methylcellulose 0.5% / polyoxyethylene sorbitan monooleate (Tween 80) 0.5% / water (w/v/v),10,mL/kg,2018-11-04,27
20214751,EX,20214751-352,613,ACT-709478,250,mg/kg,SOLUTION,QD,ORAL GAVAGE,2939-AA/1,Methylcellulose 0.5% / polyoxyethylene sorbitan monooleate (Tween 80) 0.5% / water (w/v/v),10,mL/kg,2018-11-05,28
20214751,EX,20214751-352,614,ACT-709478,250,mg/kg,SOLUTION,QD,ORAL GAVAGE,2939-AA/1,Methylcellulose 0.5% / polyoxyethylene sorbitan monooleate (Tween 80) 0.5% / water (w/v/v),10,mL/kg,2018-11-06,29
20214751,EX,20214751-352,615,ACT-709478,250,mg/kg,SOLUTION,QD,ORAL GAVAGE,2939-AA/1,Methylcellulose 0.5% / polyoxyethylene sorbitan monooleate (Tween 80) 0.5% / water (w/v/v),10,mL/kg,2018-11-07,30
20214751,EX,20214751-352,616,ACT-709478,250,mg/kg,SOLUTION,QD,ORAL GAVAGE,2939-AA/1,Methylcellulose 0.5% / polyoxyethylene sorbitan monooleate (Tween 80) 0.5% / water (w/v/v),10,mL/kg,2018-11-08,31
20214751,EX,20214751-352,617,ACT-709478,250,mg/kg,SOLUTION,QD,ORAL GAVAGE,2939-AA/1,Methylcellulose 0.5% / polyoxyethylene sorbitan monooleate (Tween 80) 0.5% / water (w/v/v),10,mL/kg,2018-11-09,32
20214751,EX,20214751-352,618,ACT-709478,250,mg/kg,SOLUTION,QD,ORAL GAVAGE,2939-AA/1,Methylcellulose 0.5% / polyoxyethylene sorbitan monooleate (Tween 80) 0.5% / water (w/v/v),10,mL/kg,2018-11-10,33
20214751,EX,20214751-352,619,ACT-709478,250,mg/kg,SOLUTION,QD,ORAL GAVAGE,2939-AA/1,Methylcellulose 0.5% / polyoxyethylene sorbitan monooleate (Tween 80) 0.5% / water (w/v/v),10,mL/kg,2018-11-11,34
20214751,EX,20214751-352,620,ACT-709478,250,mg/kg,SOLUTION,QD,ORAL GAVAGE,2939-AA/1,Methylcellulose 0.5% / polyoxyethylene sorbitan monooleate (Tween 80) 0.5% / water (w/v/v),10,mL/kg,2018-11-12,35
20214751,EX,20214751-352,621,ACT-709478,250,mg/kg,SOLUTION,QD,ORAL GAVAGE,2939-AA/1,Methylcellulose 0.5% / polyoxyethylene sorbitan monooleate (Tween 80) 0.5% / water (w/v/v),10,mL/kg,2018-11-13,36
20214751,EX,20214751-352,622,ACT-709478,250,mg/kg,SOLUTION,QD,ORAL GAVAGE,2939-AA/1,Methylcellulose 0.5% / polyoxyethylene sorbitan monooleate (Tween 80) 0.5% / water (w/v/v),10,mL/kg,2018-11-14,37
20214751,EX,20214751-352,623,ACT-709478,250,mg/kg,SOLUTION,QD,ORAL GAVAGE,2939-AA/1,Methylcellulose 0.5% / polyoxyethylene sorbitan monooleate (Tween 80) 0.5% / water (w/v/v),10,mL/kg,2018-11-15,38
20214751,EX,20214751-352,624,ACT-709478,250,mg/kg,SOLUTION,QD,ORAL GAVAGE,2939-AA/1,Methylcellulose 0.5% / polyoxyethylene sorbitan monooleate (Tween 80) 0.5% / water (w/v/v),10,mL/kg,2018-11-16,39
20214751,EX,20214751-352,625,ACT-709478,250,mg/kg,SOLUTION,QD,ORAL GAVAGE,2939-AA/1,Methylcellulose 0.5% / polyoxyethylene sorbitan monooleate (Tween 80) 0.5% / water (w/v/v),10,mL/kg,2018-11-17,40
20214751,EX,20214751-352,626,ACT-709478,250,mg/kg,SOLUTION,QD,ORAL GAVAGE,2939-AA/1,Methylcellulose 0.5% / polyoxyethylene sorbitan monooleate (Tween 80) 0.5% / water (w/v/v),10,mL/kg,2018-11-18,41
20214751,EX,20214751-352,627,ACT-709478,250,mg/kg,SOLUTION,QD,ORAL GAVAGE,2939-AA/1,Methylcellulose 0.5% / polyoxyethylene sorbitan monooleate (Tween 80) 0.5% / water (w/v/v),10,mL/kg,2018-11-19,42
20214751,EX,20214751-352,628,ACT-709478,250,mg/kg,SOLUTION,QD,ORAL GAVAGE,2939-AA/1,Methylcellulose 0.5% / polyoxyethylene sorbitan monooleate (Tween 80) 0.5% / water (w/v/v),10,mL/kg,2018-11-20,43
20214751,EX,20214751-352,629,ACT-709478,250,mg/kg,SOLUTION,QD,ORAL GAVAGE,2939-AA/1,Methylcellulose 0.5% / polyoxyethylene sorbitan monooleate (Tween 80) 0.5% / water (w/v/v),10,mL/kg,2018-11-21,44
20214751,EX,20214751-352,630,ACT-709478,250,mg/kg,SOLUTION,QD,ORAL GAVAGE,2939-AA/1,Methylcellulose 0.5% / polyoxyethylene sorbitan monooleate (Tween 80) 0.5% / water (w/v/v),10,mL/kg,2018-11-22,45
20214751,EX,20214751-353,631,ACT-709478,250,mg/kg,SOLUTION,QD,ORAL GAVAGE,2939-AA/1,Methylcellulose 0.5% / polyoxyethylene sorbitan monooleate (Tween 80) 0.5% / water (w/v/v),10,mL/kg,2018-10-09,1
20214751,EX,20214751-353,632,ACT-709478,250,mg/kg,SOLUTION,QD,ORAL GAVAGE,2939-AA/1,Methylcellulose 0.5% / polyoxyethylene sorbitan monooleate (Tween 80) 0.5% / water (w/v/v),10,mL/kg,2018-10-10,2
20214751,EX,20214751-353,633,ACT-709478,250,mg/kg,SOLUTION,QD,ORAL GAVAGE,2939-AA/1,Methylcellulose 0.5% / polyoxyethylene sorbitan monooleate (Tween 80) 0.5% / water (w/v/v),10,mL/kg,2018-10-11,3
20214751,EX,20214751-353,634,ACT-709478,250,mg/kg,SOLUTION,QD,ORAL GAVAGE,2939-AA/1,Methylcellulose 0.5% / polyoxyethylene sorbitan monooleate (Tween 80) 0.5% / water (w/v/v),10,mL/kg,2018-10-12,4
20214751,EX,20214751-353,635,ACT-709478,250,mg/kg,SOLUTION,QD,ORAL GAVAGE,2939-AA/1,Methylcellulose 0.5% / polyoxyethylene sorbitan monooleate (Tween 80) 0.5% / water (w/v/v),10,mL/kg,2018-10-13,5
20214751,EX,20214751-353,636,ACT-709478,250,mg/kg,SOLUTION,QD,ORAL GAVAGE,2939-AA/1,Methylcellulose 0.5% / polyoxyethylene sorbitan monooleate (Tween 80) 0.5% / water (w/v/v),10,mL/kg,2018-10-14,6
20214751,EX,20214751-353,637,ACT-709478,250,mg/kg,SOLUTION,QD,ORAL GAVAGE,2939-AA/1,Methylcellulose 0.5% / polyoxyethylene sorbitan monooleate (Tween 80) 0.5% / water (w/v/v),10,mL/kg,2018-10-15,7
20214751,EX,20214751-353,638,ACT-709478,250,mg/kg,SOLUTION,QD,ORAL GAVAGE,2939-AA/1,Methylcellulose 0.5% / polyoxyethylene sorbitan monooleate (Tween 80) 0.5% / water (w/v/v),10,mL/kg,2018-10-16,8
20214751,EX,20214751-353,639,ACT-709478,250,mg/kg,SOLUTION,QD,ORAL GAVAGE,2939-AA/1,Methylcellulose 0.5% / polyoxyethylene sorbitan monooleate (Tween 80) 0.5% / water (w/v/v),10,mL/kg,2018-10-17,9
20214751,EX,20214751-353,640,ACT-709478,250,mg/kg,SOLUTION,QD,ORAL GAVAGE,2939-AA/1,Methylcellulose 0.5% / polyoxyethylene sorbitan monooleate (Tween 80) 0.5% / water (w/v/v),10,mL/kg,2018-10-18,10
20214751,EX,20214751-353,641,ACT-709478,250,mg/kg,SOLUTION,QD,ORAL GAVAGE,2939-AA/1,Methylcellulose 0.5% / polyoxyethylene sorbitan monooleate (Tween 80) 0.5% / water (w/v/v),10,mL/kg,2018-10-19,11
20214751,EX,20214751-353,642,ACT-709478,250,mg/kg,SOLUTION,QD,ORAL GAVAGE,2939-AA/1,Methylcellulose 0.5% / polyoxyethylene sorbitan monooleate (Tween 80) 0.5% / water (w/v/v),10,mL/kg,2018-10-20,12
20214751,EX,20214751-353,643,ACT-709478,250,mg/kg,SOLUTION,QD,ORAL GAVAGE,2939-AA/1,Methylcellulose 0.5% / polyoxyethylene sorbitan monooleate (Tween 80) 0.5% / water (w/v/v),10,mL/kg,2018-10-21,13
20214751,EX,20214751-353,644,ACT-709478,250,mg/kg,SOLUTION,QD,ORAL GAVAGE,2939-AA/1,Methylcellulose 0.5% / polyoxyethylene sorbitan monooleate (Tween 80) 0.5% / water (w/v/v),10,mL/kg,2018-10-22,14
20214751,EX,20214751-353,645,ACT-709478,250,mg/kg,SOLUTION,QD,ORAL GAVAGE,2939-AA/1,Methylcellulose 0.5% / polyoxyethylene sorbitan monooleate (Tween 80) 0.5% / water (w/v/v),10,mL/kg,2018-10-23,15
20214751,EX,20214751-353,646,ACT-709478,250,mg/kg,SOLUTION,QD,ORAL GAVAGE,2939-AA/1,Methylcellulose 0.5% / polyoxyethylene sorbitan monooleate (Tween 80) 0.5% / water (w/v/v),10,mL/kg,2018-10-24,16
20214751,EX,20214751-353,647,ACT-709478,250,mg/kg,SOLUTION,QD,ORAL GAVAGE,2939-AA/1,Methylcellulose 0.5% / polyoxyethylene sorbitan monooleate (Tween 80) 0.5% / water (w/v/v),10,mL/kg,2018-10-25,17
20214751,EX,20214751-353,648,ACT-709478,250,mg/kg,SOLUTION,QD,ORAL GAVAGE,2939-AA/1,Methylcellulose 0.5% / polyoxyethylene sorbitan monooleate (Tween 80) 0.5% / water (w/v/v),10,mL/kg,2018-10-26,18
20214751,EX,20214751-353,649,ACT-709478,250,mg/kg,SOLUTION,QD,ORAL GAVAGE,2939-AA/1,Methylcellulose 0.5% / polyoxyethylene sorbitan monooleate (Tween 80) 0.5% / water (w/v/v),10,mL/kg,2018-10-27,19
20214751,EX,20214751-353,650,ACT-709478,250,mg/kg,SOLUTION,QD,ORAL GAVAGE,2939-AA/1,Methylcellulose 0.5% / polyoxyethylene sorbitan monooleate (Tween 80) 0.5% / water (w/v/v),10,mL/kg,2018-10-28,20
20214751,EX,20214751-353,651,ACT-709478,250,mg/kg,SOLUTION,QD,ORAL GAVAGE,2939-AA/1,Methylcellulose 0.5% / polyoxyethylene sorbitan monooleate (Tween 80) 0.5% / water (w/v/v),10,mL/kg,2018-10-29,21
20214751,EX,20214751-353,652,ACT-709478,250,mg/kg,SOLUTION,QD,ORAL GAVAGE,2939-AA/1,Methylcellulose 0.5% / polyoxyethylene sorbitan monooleate (Tween 80) 0.5% / water (w/v/v),10,mL/kg,2018-10-30,22
20214751,EX,20214751-353,653,ACT-709478,250,mg/kg,SOLUTION,QD,ORAL GAVAGE,2939-AA/1,Methylcellulose 0.5% / polyoxyethylene sorbitan monooleate (Tween 80) 0.5% / water (w/v/v),10,mL/kg,2018-10-31,23
20214751,EX,20214751-353,654,ACT-709478,250,mg/kg,SOLUTION,QD,ORAL GAVAGE,2939-AA/1,Methylcellulose 0.5% / polyoxyethylene sorbitan monooleate (Tween 80) 0.5% / water (w/v/v),10,mL/kg,2018-11-01,24
20214751,EX,20214751-353,655,ACT-709478,250,mg/kg,SOLUTION,QD,ORAL GAVAGE,2939-AA/1,Methylcellulose 0.5% / polyoxyethylene sorbitan monooleate (Tween 80) 0.5% / water (w/v/v),10,mL/kg,2018-11-02,25
20214751,EX,20214751-353,656,ACT-709478,250,mg/kg,SOLUTION,QD,ORAL GAVAGE,2939-AA/1,Methylcellulose 0.5% / polyoxyethylene sorbitan monooleate (Tween 80) 0.5% / water (w/v/v),10,mL/kg,2018-11-03,26
20214751,EX,20214751-353,657,ACT-709478,250,mg/kg,SOLUTION,QD,ORAL GAVAGE,2939-AA/1,Methylcellulose 0.5% / polyoxyethylene sorbitan monooleate (Tween 80) 0.5% / water (w/v/v),10,mL/kg,2018-11-04,27
20214751,EX,20214751-353,658,ACT-709478,250,mg/kg,SOLUTION,QD,ORAL GAVAGE,2939-AA/1,Methylcellulose 0.5% / polyoxyethylene sorbitan monooleate (Tween 80) 0.5% / water (w/v/v),10,mL/kg,2018-11-05,28
20214751,EX,20214751-353,659,ACT-709478,250,mg/kg,SOLUTION,QD,ORAL GAVAGE,2939-AA/1,Methylcellulose 0.5% / polyoxyethylene sorbitan monooleate (Tween 80) 0.5% / water (w/v/v),10,mL/kg,2018-11-06,29
20214751,EX,20214751-353,660,ACT-709478,250,mg/kg,SOLUTION,QD,ORAL GAVAGE,2939-AA/1,Methylcellulose 0.5% / polyoxyethylene sorbitan monooleate (Tween 80) 0.5% / water (w/v/v),10,mL/kg,2018-11-07,30
20214751,EX,20214751-353,661,ACT-709478,250,mg/kg,SOLUTION,QD,ORAL GAVAGE,2939-AA/1,Methylcellulose 0.5% / polyoxyethylene sorbitan monooleate (Tween 80) 0.5% / water (w/v/v),10,mL/kg,2018-11-08,31
20214751,EX,20214751-353,662,ACT-709478,250,mg/kg,SOLUTION,QD,ORAL GAVAGE,2939-AA/1,Methylcellulose 0.5% / polyoxyethylene sorbitan monooleate (Tween 80) 0.5% / water (w/v/v),10,mL/kg,2018-11-09,32
20214751,EX,20214751-353,663,ACT-709478,250,mg/kg,SOLUTION,QD,ORAL GAVAGE,2939-AA/1,Methylcellulose 0.5% / polyoxyethylene sorbitan monooleate (Tween 80) 0.5% / water (w/v/v),10,mL/kg,2018-11-10,33
20214751,EX,20214751-353,664,ACT-709478,250,mg/kg,SOLUTION,QD,ORAL GAVAGE,2939-AA/1,Methylcellulose 0.5% / polyoxyethylene sorbitan monooleate (Tween 80) 0.5% / water (w/v/v),10,mL/kg,2018-11-11,34
20214751,EX,20214751-353,665,ACT-709478,250,mg/kg,SOLUTION,QD,ORAL GAVAGE,2939-AA/1,Methylcellulose 0.5% / polyoxyethylene sorbitan monooleate (Tween 80) 0.5% / water (w/v/v),10,mL/kg,2018-11-12,35
20214751,EX,20214751-353,666,ACT-709478,250,mg/kg,SOLUTION,QD,ORAL GAVAGE,2939-AA/1,Methylcellulose 0.5% / polyoxyethylene sorbitan monooleate (Tween 80) 0.5% / water (w/v/v),10,mL/kg,2018-11-13,36
20214751,EX,20214751-353,667,ACT-709478,250,mg/kg,SOLUTION,QD,ORAL GAVAGE,2939-AA/1,Methylcellulose 0.5% / polyoxyethylene sorbitan monooleate (Tween 80) 0.5% / water (w/v/v),10,mL/kg,2018-11-14,37
20214751,EX,20214751-353,668,ACT-709478,250,mg/kg,SOLUTION,QD,ORAL GAVAGE,2939-AA/1,Methylcellulose 0.5% / polyoxyethylene sorbitan monooleate (Tween 80) 0.5% / water (w/v/v),10,mL/kg,2018-11-15,38
20214751,EX,20214751-353,669,ACT-709478,250,mg/kg,SOLUTION,QD,ORAL GAVAGE,2939-AA/1,Methylcellulose 0.5% / polyoxyethylene sorbitan monooleate (Tween 80) 0.5% / water (w/v/v),10,mL/kg,2018-11-16,39
20214751,EX,20214751-353,670,ACT-709478,250,mg/kg,SOLUTION,QD,ORAL GAVAGE,2939-AA/1,Methylcellulose 0.5% / polyoxyethylene sorbitan monooleate (Tween 80) 0.5% / water (w/v/v),10,mL/kg,2018-11-17,40
20214751,EX,20214751-353,671,ACT-709478,250,mg/kg,SOLUTION,QD,ORAL GAVAGE,2939-AA/1,Methylcellulose 0.5% / polyoxyethylene sorbitan monooleate (Tween 80) 0.5% / water (w/v/v),10,mL/kg,2018-11-18,41
20214751,EX,20214751-353,672,ACT-709478,250,mg/kg,SOLUTION,QD,ORAL GAVAGE,2939-AA/1,Methylcellulose 0.5% / polyoxyethylene sorbitan monooleate (Tween 80) 0.5% / water (w/v/v),10,mL/kg,2018-11-19,42
20214751,EX,20214751-353,673,ACT-709478,250,mg/kg,SOLUTION,QD,ORAL GAVAGE,2939-AA/1,Methylcellulose 0.5% / polyoxyethylene sorbitan monooleate (Tween 80) 0.5% / water (w/v/v),10,mL/kg,2018-11-20,43
20214751,EX,20214751-353,674,ACT-709478,250,mg/kg,SOLUTION,QD,ORAL GAVAGE,2939-AA/1,Methylcellulose 0.5% / polyoxyethylene sorbitan monooleate (Tween 80) 0.5% / water (w/v/v),10,mL/kg,2018-11-21,44
20214751,EX,20214751-353,675,ACT-709478,250,mg/kg,SOLUTION,QD,ORAL GAVAGE,2939-AA/1,Methylcellulose 0.5% / polyoxyethylene sorbitan monooleate (Tween 80) 0.5% / water (w/v/v),10,mL/kg,2018-11-22,45
20214751,EX,20214751-354,676,ACT-709478,250,mg/kg,SOLUTION,QD,ORAL GAVAGE,2939-AA/1,Methylcellulose 0.5% / polyoxyethylene sorbitan monooleate (Tween 80) 0.5% / water (w/v/v),10,mL/kg,2018-10-09,1
20214751,EX,20214751-354,677,ACT-709478,250,mg/kg,SOLUTION,QD,ORAL GAVAGE,2939-AA/1,Methylcellulose 0.5% / polyoxyethylene sorbitan monooleate (Tween 80) 0.5% / water (w/v/v),10,mL/kg,2018-10-10,2
20214751,EX,20214751-354,678,ACT-709478,250,mg/kg,SOLUTION,QD,ORAL GAVAGE,2939-AA/1,Methylcellulose 0.5% / polyoxyethylene sorbitan monooleate (Tween 80) 0.5% / water (w/v/v),10,mL/kg,2018-10-11,3
20214751,EX,20214751-354,679,ACT-709478,250,mg/kg,SOLUTION,QD,ORAL GAVAGE,2939-AA/1,Methylcellulose 0.5% / polyoxyethylene sorbitan monooleate (Tween 80) 0.5% / water (w/v/v),10,mL/kg,2018-10-12,4
20214751,EX,20214751-354,680,ACT-709478,250,mg/kg,SOLUTION,QD,ORAL GAVAGE,2939-AA/1,Methylcellulose 0.5% / polyoxyethylene sorbitan monooleate (Tween 80) 0.5% / water (w/v/v),10,mL/kg,2018-10-13,5
20214751,EX,20214751-354,681,ACT-709478,250,mg/kg,SOLUTION,QD,ORAL GAVAGE,2939-AA/1,Methylcellulose 0.5% / polyoxyethylene sorbitan monooleate (Tween 80) 0.5% / water (w/v/v),10,mL/kg,2018-10-14,6
20214751,EX,20214751-354,682,ACT-709478,250,mg/kg,SOLUTION,QD,ORAL GAVAGE,2939-AA/1,Methylcellulose 0.5% / polyoxyethylene sorbitan monooleate (Tween 80) 0.5% / water (w/v/v),10,mL/kg,2018-10-15,7
20214751,EX,20214751-354,683,ACT-709478,250,mg/kg,SOLUTION,QD,ORAL GAVAGE,2939-AA/1,Methylcellulose 0.5% / polyoxyethylene sorbitan monooleate (Tween 80) 0.5% / water (w/v/v),10,mL/kg,2018-10-16,8
20214751,EX,20214751-354,684,ACT-709478,250,mg/kg,SOLUTION,QD,ORAL GAVAGE,2939-AA/1,Methylcellulose 0.5% / polyoxyethylene sorbitan monooleate (Tween 80) 0.5% / water (w/v/v),10,mL/kg,2018-10-17,9
20214751,EX,20214751-354,685,ACT-709478,250,mg/kg,SOLUTION,QD,ORAL GAVAGE,2939-AA/1,Methylcellulose 0.5% / polyoxyethylene sorbitan monooleate (Tween 80) 0.5% / water (w/v/v),10,mL/kg,2018-10-18,10
20214751,EX,20214751-354,686,ACT-709478,250,mg/kg,SOLUTION,QD,ORAL GAVAGE,2939-AA/1,Methylcellulose 0.5% / polyoxyethylene sorbitan monooleate (Tween 80) 0.5% / water (w/v/v),10,mL/kg,2018-10-19,11
20214751,EX,20214751-354,687,ACT-709478,250,mg/kg,SOLUTION,QD,ORAL GAVAGE,2939-AA/1,Methylcellulose 0.5% / polyoxyethylene sorbitan monooleate (Tween 80) 0.5% / water (w/v/v),10,mL/kg,2018-10-20,12
20214751,EX,20214751-354,688,ACT-709478,250,mg/kg,SOLUTION,QD,ORAL GAVAGE,2939-AA/1,Methylcellulose 0.5% / polyoxyethylene sorbitan monooleate (Tween 80) 0.5% / water (w/v/v),10,mL/kg,2018-10-21,13
20214751,EX,20214751-354,689,ACT-709478,250,mg/kg,SOLUTION,QD,ORAL GAVAGE,2939-AA/1,Methylcellulose 0.5% / polyoxyethylene sorbitan monooleate (Tween 80) 0.5% / water (w/v/v),10,mL/kg,2018-10-22,14
20214751,EX,20214751-354,690,ACT-709478,250,mg/kg,SOLUTION,QD,ORAL GAVAGE,2939-AA/1,Methylcellulose 0.5% / polyoxyethylene sorbitan monooleate (Tween 80) 0.5% / water (w/v/v),10,mL/kg,2018-10-23,15
20214751,EX,20214751-354,691,ACT-709478,250,mg/kg,SOLUTION,QD,ORAL GAVAGE,2939-AA/1,Methylcellulose 0.5% / polyoxyethylene sorbitan monooleate (Tween 80) 0.5% / water (w/v/v),10,mL/kg,2018-10-24,16
20214751,EX,20214751-354,692,ACT-709478,250,mg/kg,SOLUTION,QD,ORAL GAVAGE,2939-AA/1,Methylcellulose 0.5% / polyoxyethylene sorbitan monooleate (Tween 80) 0.5% / water (w/v/v),10,mL/kg,2018-10-25,17
20214751,EX,20214751-354,693,ACT-709478,250,mg/kg,SOLUTION,QD,ORAL GAVAGE,2939-AA/1,Methylcellulose 0.5% / polyoxyethylene sorbitan monooleate (Tween 80) 0.5% / water (w/v/v),10,mL/kg,2018-10-26,18
20214751,EX,20214751-354,694,ACT-709478,250,mg/kg,SOLUTION,QD,ORAL GAVAGE,2939-AA/1,Methylcellulose 0.5% / polyoxyethylene sorbitan monooleate (Tween 80) 0.5% / water (w/v/v),10,mL/kg,2018-10-27,19
20214751,EX,20214751-354,695,ACT-709478,250,mg/kg,SOLUTION,QD,ORAL GAVAGE,2939-AA/1,Methylcellulose 0.5% / polyoxyethylene sorbitan monooleate (Tween 80) 0.5% / water (w/v/v),10,mL/kg,2018-10-28,20
20214751,EX,20214751-354,696,ACT-709478,250,mg/kg,SOLUTION,QD,ORAL GAVAGE,2939-AA/1,Methylcellulose 0.5% / polyoxyethylene sorbitan monooleate (Tween 80) 0.5% / water (w/v/v),10,mL/kg,2018-10-29,21
20214751,EX,20214751-354,697,ACT-709478,250,mg/kg,SOLUTION,QD,ORAL GAVAGE,2939-AA/1,Methylcellulose 0.5% / polyoxyethylene sorbitan monooleate (Tween 80) 0.5% / water (w/v/v),10,mL/kg,2018-10-30,22
20214751,EX,20214751-354,698,ACT-709478,250,mg/kg,SOLUTION,QD,ORAL GAVAGE,2939-AA/1,Methylcellulose 0.5% / polyoxyethylene sorbitan monooleate (Tween 80) 0.5% / water (w/v/v),10,mL/kg,2018-10-31,23
20214751,EX,20214751-354,699,ACT-709478,250,mg/kg,SOLUTION,QD,ORAL GAVAGE,2939-AA/1,Methylcellulose 0.5% / polyoxyethylene sorbitan monooleate (Tween 80) 0.5% / water (w/v/v),10,mL/kg,2018-11-01,24
20214751,EX,20214751-354,700,ACT-709478,250,mg/kg,SOLUTION,QD,ORAL GAVAGE,2939-AA/1,Methylcellulose 0.5% / polyoxyethylene sorbitan monooleate (Tween 80) 0.5% / water (w/v/v),10,mL/kg,2018-11-02,25
20214751,EX,20214751-354,701,ACT-709478,250,mg/kg,SOLUTION,QD,ORAL GAVAGE,2939-AA/1,Methylcellulose 0.5% / polyoxyethylene sorbitan monooleate (Tween 80) 0.5% / water (w/v/v),10,mL/kg,2018-11-03,26
20214751,EX,20214751-354,702,ACT-709478,250,mg/kg,SOLUTION,QD,ORAL GAVAGE,2939-AA/1,Methylcellulose 0.5% / polyoxyethylene sorbitan monooleate (Tween 80) 0.5% / water (w/v/v),10,mL/kg,2018-11-04,27
20214751,EX,20214751-354,703,ACT-709478,250,mg/kg,SOLUTION,QD,ORAL GAVAGE,2939-AA/1,Methylcellulose 0.5% / polyoxyethylene sorbitan monooleate (Tween 80) 0.5% / water (w/v/v),10,mL/kg,2018-11-05,28
20214751,EX,20214751-354,704,ACT-709478,250,mg/kg,SOLUTION,QD,ORAL GAVAGE,2939-AA/1,Methylcellulose 0.5% / polyoxyethylene sorbitan monooleate (Tween 80) 0.5% / water (w/v/v),10,mL/kg,2018-11-06,29
20214751,EX,20214751-354,705,ACT-709478,250,mg/kg,SOLUTION,QD,ORAL GAVAGE,2939-AA/1,Methylcellulose 0.5% / polyoxyethylene sorbitan monooleate (Tween 80) 0.5% / water (w/v/v),10,mL/kg,2018-11-07,30
20214751,EX,20214751-354,706,ACT-709478,250,mg/kg,SOLUTION,QD,ORAL GAVAGE,2939-AA/1,Methylcellulose 0.5% / polyoxyethylene sorbitan monooleate (Tween 80) 0.5% / water (w/v/v),10,mL/kg,2018-11-08,31
20214751,EX,20214751-354,707,ACT-709478,250,mg/kg,SOLUTION,QD,ORAL GAVAGE,2939-AA/1,Methylcellulose 0.5% / polyoxyethylene sorbitan monooleate (Tween 80) 0.5% / water (w/v/v),10,mL/kg,2018-11-09,32
20214751,EX,20214751-354,708,ACT-709478,250,mg/kg,SOLUTION,QD,ORAL GAVAGE,2939-AA/1,Methylcellulose 0.5% / polyoxyethylene sorbitan monooleate (Tween 80) 0.5% / water (w/v/v),10,mL/kg,2018-11-10,33
20214751,EX,20214751-354,709,ACT-709478,250,mg/kg,SOLUTION,QD,ORAL GAVAGE,2939-AA/1,Methylcellulose 0.5% / polyoxyethylene sorbitan monooleate (Tween 80) 0.5% / water (w/v/v),10,mL/kg,2018-11-11,34
20214751,EX,20214751-354,710,ACT-709478,250,mg/kg,SOLUTION,QD,ORAL GAVAGE,2939-AA/1,Methylcellulose 0.5% / polyoxyethylene sorbitan monooleate (Tween 80) 0.5% / water (w/v/v),10,mL/kg,2018-11-12,35
20214751,EX,20214751-354,711,ACT-709478,250,mg/kg,SOLUTION,QD,ORAL GAVAGE,2939-AA/1,Methylcellulose 0.5% / polyoxyethylene sorbitan monooleate (Tween 80) 0.5% / water (w/v/v),10,mL/kg,2018-11-13,36
20214751,EX,20214751-354,712,ACT-709478,250,mg/kg,SOLUTION,QD,ORAL GAVAGE,2939-AA/1,Methylcellulose 0.5% / polyoxyethylene sorbitan monooleate (Tween 80) 0.5% / water (w/v/v),10,mL/kg,2018-11-14,37
20214751,EX,20214751-354,713,ACT-709478,250,mg/kg,SOLUTION,QD,ORAL GAVAGE,2939-AA/1,Methylcellulose 0.5% / polyoxyethylene sorbitan monooleate (Tween 80) 0.5% / water (w/v/v),10,mL/kg,2018-11-15,38
20214751,EX,20214751-354,714,ACT-709478,250,mg/kg,SOLUTION,QD,ORAL GAVAGE,2939-AA/1,Methylcellulose 0.5% / polyoxyethylene sorbitan monooleate (Tween 80) 0.5% / water (w/v/v),10,mL/kg,2018-11-16,39
20214751,EX,20214751-354,715,ACT-709478,250,mg/kg,SOLUTION,QD,ORAL GAVAGE,2939-AA/1,Methylcellulose 0.5% / polyoxyethylene sorbitan monooleate (Tween 80) 0.5% / water (w/v/v),10,mL/kg,2018-11-17,40
20214751,EX,20214751-354,716,ACT-709478,250,mg/kg,SOLUTION,QD,ORAL GAVAGE,2939-AA/1,Methylcellulose 0.5% / polyoxyethylene sorbitan monooleate (Tween 80) 0.5% / water (w/v/v),10,mL/kg,2018-11-18,41
20214751,EX,20214751-354,717,ACT-709478,250,mg/kg,SOLUTION,QD,ORAL GAVAGE,2939-AA/1,Methylcellulose 0.5% / polyoxyethylene sorbitan monooleate (Tween 80) 0.5% / water (w/v/v),10,mL/kg,2018-11-19,42
20214751,EX,20214751-354,718,ACT-709478,250,mg/kg,SOLUTION,QD,ORAL GAVAGE,2939-AA/1,Methylcellulose 0.5% / polyoxyethylene sorbitan monooleate (Tween 80) 0.5% / water (w/v/v),10,mL/kg,2018-11-20,43
20214751,EX,20214751-354,719,ACT-709478,250,mg/kg,SOLUTION,QD,ORAL GAVAGE,2939-AA/1,Methylcellulose 0.5% / polyoxyethylene sorbitan monooleate (Tween 80) 0.5% / water (w/v/v),10,mL/kg,2018-11-21,44
20214751,EX,20214751-354,720,ACT-709478,250,mg/kg,SOLUTION,QD,ORAL GAVAGE,2939-AA/1,Methylcellulose 0.5% / polyoxyethylene sorbitan monooleate (Tween 80) 0.5% / water (w/v/v),10,mL/kg,2018-11-22,45
20214751,EX,20214751-355,721,ACT-709478,250,mg/kg,SOLUTION,QD,ORAL GAVAGE,2939-AA/1,Methylcellulose 0.5% / polyoxyethylene sorbitan monooleate (Tween 80) 0.5% / water (w/v/v),10,mL/kg,2018-10-09,1
20214751,EX,20214751-355,722,ACT-709478,250,mg/kg,SOLUTION,QD,ORAL GAVAGE,2939-AA/1,Methylcellulose 0.5% / polyoxyethylene sorbitan monooleate (Tween 80) 0.5% / water (w/v/v),10,mL/kg,2018-10-10,2
20214751,EX,20214751-355,723,ACT-709478,250,mg/kg,SOLUTION,QD,ORAL GAVAGE,2939-AA/1,Methylcellulose 0.5% / polyoxyethylene sorbitan monooleate (Tween 80) 0.5% / water (w/v/v),10,mL/kg,2018-10-11,3
20214751,EX,20214751-355,724,ACT-709478,250,mg/kg,SOLUTION,QD,ORAL GAVAGE,2939-AA/1,Methylcellulose 0.5% / polyoxyethylene sorbitan monooleate (Tween 80) 0.5% / water (w/v/v),10,mL/kg,2018-10-12,4
20214751,EX,20214751-355,725,ACT-709478,250,mg/kg,SOLUTION,QD,ORAL GAVAGE,2939-AA/1,Methylcellulose 0.5% / polyoxyethylene sorbitan monooleate (Tween 80) 0.5% / water (w/v/v),10,mL/kg,2018-10-13,5
20214751,EX,20214751-355,726,ACT-709478,250,mg/kg,SOLUTION,QD,ORAL GAVAGE,2939-AA/1,Methylcellulose 0.5% / polyoxyethylene sorbitan monooleate (Tween 80) 0.5% / water (w/v/v),10,mL/kg,2018-10-14,6
20214751,EX,20214751-355,727,ACT-709478,250,mg/kg,SOLUTION,QD,ORAL GAVAGE,2939-AA/1,Methylcellulose 0.5% / polyoxyethylene sorbitan monooleate (Tween 80) 0.5% / water (w/v/v),10,mL/kg,2018-10-15,7
20214751,EX,20214751-355,728,ACT-709478,250,mg/kg,SOLUTION,QD,ORAL GAVAGE,2939-AA/1,Methylcellulose 0.5% / polyoxyethylene sorbitan monooleate (Tween 80) 0.5% / water (w/v/v),10,mL/kg,2018-10-16,8
20214751,EX,20214751-355,729,ACT-709478,250,mg/kg,SOLUTION,QD,ORAL GAVAGE,2939-AA/1,Methylcellulose 0.5% / polyoxyethylene sorbitan monooleate (Tween 80) 0.5% / water (w/v/v),10,mL/kg,2018-10-17,9
20214751,EX,20214751-355,730,ACT-709478,250,mg/kg,SOLUTION,QD,ORAL GAVAGE,2939-AA/1,Methylcellulose 0.5% / polyoxyethylene sorbitan monooleate (Tween 80) 0.5% / water (w/v/v),10,mL/kg,2018-10-18,10
20214751,EX,20214751-355,731,ACT-709478,250,mg/kg,SOLUTION,QD,ORAL GAVAGE,2939-AA/1,Methylcellulose 0.5% / polyoxyethylene sorbitan monooleate (Tween 80) 0.5% / water (w/v/v),10,mL/kg,2018-10-19,11
20214751,EX,20214751-355,732,ACT-709478,250,mg/kg,SOLUTION,QD,ORAL GAVAGE,2939-AA/1,Methylcellulose 0.5% / polyoxyethylene sorbitan monooleate (Tween 80) 0.5% / water (w/v/v),10,mL/kg,2018-10-20,12
20214751,EX,20214751-355,733,ACT-709478,250,mg/kg,SOLUTION,QD,ORAL GAVAGE,2939-AA/1,Methylcellulose 0.5% / polyoxyethylene sorbitan monooleate (Tween 80) 0.5% / water (w/v/v),10,mL/kg,2018-10-21,13
20214751,EX,20214751-355,734,ACT-709478,250,mg/kg,SOLUTION,QD,ORAL GAVAGE,2939-AA/1,Methylcellulose 0.5% / polyoxyethylene sorbitan monooleate (Tween 80) 0.5% / water (w/v/v),10,mL/kg,2018-10-22,14
20214751,EX,20214751-355,735,ACT-709478,250,mg/kg,SOLUTION,QD,ORAL GAVAGE,2939-AA/1,Methylcellulose 0.5% / polyoxyethylene sorbitan monooleate (Tween 80) 0.5% / water (w/v/v),10,mL/kg,2018-10-23,15
20214751,EX,20214751-355,736,ACT-709478,250,mg/kg,SOLUTION,QD,ORAL GAVAGE,2939-AA/1,Methylcellulose 0.5% / polyoxyethylene sorbitan monooleate (Tween 80) 0.5% / water (w/v/v),10,mL/kg,2018-10-24,16
20214751,EX,20214751-355,737,ACT-709478,250,mg/kg,SOLUTION,QD,ORAL GAVAGE,2939-AA/1,Methylcellulose 0.5% / polyoxyethylene sorbitan monooleate (Tween 80) 0.5% / water (w/v/v),10,mL/kg,2018-10-25,17
20214751,EX,20214751-355,738,ACT-709478,250,mg/kg,SOLUTION,QD,ORAL GAVAGE,2939-AA/1,Methylcellulose 0.5% / polyoxyethylene sorbitan monooleate (Tween 80) 0.5% / water (w/v/v),10,mL/kg,2018-10-26,18
20214751,EX,20214751-355,739,ACT-709478,250,mg/kg,SOLUTION,QD,ORAL GAVAGE,2939-AA/1,Methylcellulose 0.5% / polyoxyethylene sorbitan monooleate (Tween 80) 0.5% / water (w/v/v),10,mL/kg,2018-10-27,19
20214751,EX,20214751-355,740,ACT-709478,250,mg/kg,SOLUTION,QD,ORAL GAVAGE,2939-AA/1,Methylcellulose 0.5% / polyoxyethylene sorbitan monooleate (Tween 80) 0.5% / water (w/v/v),10,mL/kg,2018-10-28,20
20214751,EX,20214751-355,741,ACT-709478,250,mg/kg,SOLUTION,QD,ORAL GAVAGE,2939-AA/1,Methylcellulose 0.5% / polyoxyethylene sorbitan monooleate (Tween 80) 0.5% / water (w/v/v),10,mL/kg,2018-10-29,21
20214751,EX,20214751-355,742,ACT-709478,250,mg/kg,SOLUTION,QD,ORAL GAVAGE,2939-AA/1,Methylcellulose 0.5% / polyoxyethylene sorbitan monooleate (Tween 80) 0.5% / water (w/v/v),10,mL/kg,2018-10-30,22
20214751,EX,20214751-355,743,ACT-709478,250,mg/kg,SOLUTION,QD,ORAL GAVAGE,2939-AA/1,Methylcellulose 0.5% / polyoxyethylene sorbitan monooleate (Tween 80) 0.5% / water (w/v/v),10,mL/kg,2018-10-31,23
20214751,EX,20214751-355,744,ACT-709478,250,mg/kg,SOLUTION,QD,ORAL GAVAGE,2939-AA/1,Methylcellulose 0.5% / polyoxyethylene sorbitan monooleate (Tween 80) 0.5% / water (w/v/v),10,mL/kg,2018-11-01,24
20214751,EX,20214751-355,745,ACT-709478,250,mg/kg,SOLUTION,QD,ORAL GAVAGE,2939-AA/1,Methylcellulose 0.5% / polyoxyethylene sorbitan monooleate (Tween 80) 0.5% / water (w/v/v),10,mL/kg,2018-11-02,25
20214751,EX,20214751-355,746,ACT-709478,250,mg/kg,SOLUTION,QD,ORAL GAVAGE,2939-AA/1,Methylcellulose 0.5% / polyoxyethylene sorbitan monooleate (Tween 80) 0.5% / water (w/v/v),10,mL/kg,2018-11-03,26
20214751,EX,20214751-355,747,ACT-709478,250,mg/kg,SOLUTION,QD,ORAL GAVAGE,2939-AA/1,Methylcellulose 0.5% / polyoxyethylene sorbitan monooleate (Tween 80) 0.5% / water (w/v/v),10,mL/kg,2018-11-04,27
20214751,EX,20214751-355,748,ACT-709478,250,mg/kg,SOLUTION,QD,ORAL GAVAGE,2939-AA/1,Methylcellulose 0.5% / polyoxyethylene sorbitan monooleate (Tween 80) 0.5% / water (w/v/v),10,mL/kg,2018-11-05,28
20214751,EX,20214751-355,749,ACT-709478,250,mg/kg,SOLUTION,QD,ORAL GAVAGE,2939-AA/1,Methylcellulose 0.5% / polyoxyethylene sorbitan monooleate (Tween 80) 0.5% / water (w/v/v),10,mL/kg,2018-11-06,29
20214751,EX,20214751-355,750,ACT-709478,250,mg/kg,SOLUTION,QD,ORAL GAVAGE,2939-AA/1,Methylcellulose 0.5% / polyoxyethylene sorbitan monooleate (Tween 80) 0.5% / water (w/v/v),10,mL/kg,2018-11-07,30
20214751,EX,20214751-355,751,ACT-709478,250,mg/kg,SOLUTION,QD,ORAL GAVAGE,2939-AA/1,Methylcellulose 0.5% / polyoxyethylene sorbitan monooleate (Tween 80) 0.5% / water (w/v/v),10,mL/kg,2018-11-08,31
20214751,EX,20214751-355,752,ACT-709478,250,mg/kg,SOLUTION,QD,ORAL GAVAGE,2939-AA/1,Methylcellulose 0.5% / polyoxyethylene sorbitan monooleate (Tween 80) 0.5% / water (w/v/v),10,mL/kg,2018-11-09,32
20214751,EX,20214751-355,753,ACT-709478,250,mg/kg,SOLUTION,QD,ORAL GAVAGE,2939-AA/1,Methylcellulose 0.5% / polyoxyethylene sorbitan monooleate (Tween 80) 0.5% / water (w/v/v),10,mL/kg,2018-11-10,33
20214751,EX,20214751-355,754,ACT-709478,250,mg/kg,SOLUTION,QD,ORAL GAVAGE,2939-AA/1,Methylcellulose 0.5% / polyoxyethylene sorbitan monooleate (Tween 80) 0.5% / water (w/v/v),10,mL/kg,2018-11-11,34
20214751,EX,20214751-355,755,ACT-709478,250,mg/kg,SOLUTION,QD,ORAL GAVAGE,2939-AA/1,Methylcellulose 0.5% / polyoxyethylene sorbitan monooleate (Tween 80) 0.5% / water (w/v/v),10,mL/kg,2018-11-12,35
20214751,EX,20214751-355,756,ACT-709478,250,mg/kg,SOLUTION,QD,ORAL GAVAGE,2939-AA/1,Methylcellulose 0.5% / polyoxyethylene sorbitan monooleate (Tween 80) 0.5% / water (w/v/v),10,mL/kg,2018-11-13,36
20214751,EX,20214751-355,757,ACT-709478,250,mg/kg,SOLUTION,QD,ORAL GAVAGE,2939-AA/1,Methylcellulose 0.5% / polyoxyethylene sorbitan monooleate (Tween 80) 0.5% / water (w/v/v),10,mL/kg,2018-11-14,37
20214751,EX,20214751-355,758,ACT-709478,250,mg/kg,SOLUTION,QD,ORAL GAVAGE,2939-AA/1,Methylcellulose 0.5% / polyoxyethylene sorbitan monooleate (Tween 80) 0.5% / water (w/v/v),10,mL/kg,2018-11-15,38
20214751,EX,20214751-355,759,ACT-709478,250,mg/kg,SOLUTION,QD,ORAL GAVAGE,2939-AA/1,Methylcellulose 0.5% / polyoxyethylene sorbitan monooleate (Tween 80) 0.5% / water (w/v/v),10,mL/kg,2018-11-16,39
20214751,EX,20214751-355,760,ACT-709478,250,mg/kg,SOLUTION,QD,ORAL GAVAGE,2939-AA/1,Methylcellulose 0.5% / polyoxyethylene sorbitan monooleate (Tween 80) 0.5% / water (w/v/v),10,mL/kg,2018-11-17,40
20214751,EX,20214751-355,761,ACT-709478,250,mg/kg,SOLUTION,QD,ORAL GAVAGE,2939-AA/1,Methylcellulose 0.5% / polyoxyethylene sorbitan monooleate (Tween 80) 0.5% / water (w/v/v),10,mL/kg,2018-11-18,41
20214751,EX,20214751-355,762,ACT-709478,250,mg/kg,SOLUTION,QD,ORAL GAVAGE,2939-AA/1,Methylcellulose 0.5% / polyoxyethylene sorbitan monooleate (Tween 80) 0.5% / water (w/v/v),10,mL/kg,2018-11-19,42
20214751,EX,20214751-355,763,ACT-709478,250,mg/kg,SOLUTION,QD,ORAL GAVAGE,2939-AA/1,Methylcellulose 0.5% / polyoxyethylene sorbitan monooleate (Tween 80) 0.5% / water (w/v/v),10,mL/kg,2018-11-20,43
20214751,EX,20214751-355,764,ACT-709478,250,mg/kg,SOLUTION,QD,ORAL GAVAGE,2939-AA/1,Methylcellulose 0.5% / polyoxyethylene sorbitan monooleate (Tween 80) 0.5% / water (w/v/v),10,mL/kg,2018-11-21,44
20214751,EX,20214751-355,765,ACT-709478,250,mg/kg,SOLUTION,QD,ORAL GAVAGE,2939-AA/1,Methylcellulose 0.5% / polyoxyethylene sorbitan monooleate (Tween 80) 0.5% / water (w/v/v),10,mL/kg,2018-11-22,45
20214751,EX,20214751-356,766,ACT-709478,250,mg/kg,SOLUTION,QD,ORAL GAVAGE,2939-AA/1,Methylcellulose 0.5% / polyoxyethylene sorbitan monooleate (Tween 80) 0.5% / water (w/v/v),10,mL/kg,2018-10-09,1
20214751,EX,20214751-356,767,ACT-709478,250,mg/kg,SOLUTION,QD,ORAL GAVAGE,2939-AA/1,Methylcellulose 0.5% / polyoxyethylene sorbitan monooleate (Tween 80) 0.5% / water (w/v/v),10,mL/kg,2018-10-10,2
20214751,EX,20214751-356,768,ACT-709478,250,mg/kg,SOLUTION,QD,ORAL GAVAGE,2939-AA/1,Methylcellulose 0.5% / polyoxyethylene sorbitan monooleate (Tween 80) 0.5% / water (w/v/v),10,mL/kg,2018-10-11,3
20214751,EX,20214751-356,769,ACT-709478,250,mg/kg,SOLUTION,QD,ORAL GAVAGE,2939-AA/1,Methylcellulose 0.5% / polyoxyethylene sorbitan monooleate (Tween 80) 0.5% / water (w/v/v),10,mL/kg,2018-10-12,4
20214751,EX,20214751-356,770,ACT-709478,250,mg/kg,SOLUTION,QD,ORAL GAVAGE,2939-AA/1,Methylcellulose 0.5% / polyoxyethylene sorbitan monooleate (Tween 80) 0.5% / water (w/v/v),10,mL/kg,2018-10-13,5
20214751,EX,20214751-356,771,ACT-709478,250,mg/kg,SOLUTION,QD,ORAL GAVAGE,2939-AA/1,Methylcellulose 0.5% / polyoxyethylene sorbitan monooleate (Tween 80) 0.5% / water (w/v/v),10,mL/kg,2018-10-14,6
20214751,EX,20214751-356,772,ACT-709478,250,mg/kg,SOLUTION,QD,ORAL GAVAGE,2939-AA/1,Methylcellulose 0.5% / polyoxyethylene sorbitan monooleate (Tween 80) 0.5% / water (w/v/v),10,mL/kg,2018-10-15,7
20214751,EX,20214751-356,773,ACT-709478,250,mg/kg,SOLUTION,QD,ORAL GAVAGE,2939-AA/1,Methylcellulose 0.5% / polyoxyethylene sorbitan monooleate (Tween 80) 0.5% / water (w/v/v),10,mL/kg,2018-10-16,8
20214751,EX,20214751-356,774,ACT-709478,250,mg/kg,SOLUTION,QD,ORAL GAVAGE,2939-AA/1,Methylcellulose 0.5% / polyoxyethylene sorbitan monooleate (Tween 80) 0.5% / water (w/v/v),10,mL/kg,2018-10-17,9
20214751,EX,20214751-356,775,ACT-709478,250,mg/kg,SOLUTION,QD,ORAL GAVAGE,2939-AA/1,Methylcellulose 0.5% / polyoxyethylene sorbitan monooleate (Tween 80) 0.5% / water (w/v/v),10,mL/kg,2018-10-18,10
20214751,EX,20214751-356,776,ACT-709478,250,mg/kg,SOLUTION,QD,ORAL GAVAGE,2939-AA/1,Methylcellulose 0.5% / polyoxyethylene sorbitan monooleate (Tween 80) 0.5% / water (w/v/v),10,mL/kg,2018-10-19,11
20214751,EX,20214751-356,777,ACT-709478,250,mg/kg,SOLUTION,QD,ORAL GAVAGE,2939-AA/1,Methylcellulose 0.5% / polyoxyethylene sorbitan monooleate (Tween 80) 0.5% / water (w/v/v),10,mL/kg,2018-10-20,12
20214751,EX,20214751-356,778,ACT-709478,250,mg/kg,SOLUTION,QD,ORAL GAVAGE,2939-AA/1,Methylcellulose 0.5% / polyoxyethylene sorbitan monooleate (Tween 80) 0.5% / water (w/v/v),10,mL/kg,2018-10-21,13
20214751,EX,20214751-356,779,ACT-709478,250,mg/kg,SOLUTION,QD,ORAL GAVAGE,2939-AA/1,Methylcellulose 0.5% / polyoxyethylene sorbitan monooleate (Tween 80) 0.5% / water (w/v/v),10,mL/kg,2018-10-22,14
20214751,EX,20214751-356,780,ACT-709478,250,mg/kg,SOLUTION,QD,ORAL GAVAGE,2939-AA/1,Methylcellulose 0.5% / polyoxyethylene sorbitan monooleate (Tween 80) 0.5% / water (w/v/v),10,mL/kg,2018-10-23,15
20214751,EX,20214751-356,781,ACT-709478,250,mg/kg,SOLUTION,QD,ORAL GAVAGE,2939-AA/1,Methylcellulose 0.5% / polyoxyethylene sorbitan monooleate (Tween 80) 0.5% / water (w/v/v),10,mL/kg,2018-10-24,16
20214751,EX,20214751-356,782,ACT-709478,250,mg/kg,SOLUTION,QD,ORAL GAVAGE,2939-AA/1,Methylcellulose 0.5% / polyoxyethylene sorbitan monooleate (Tween 80) 0.5% / water (w/v/v),10,mL/kg,2018-10-25,17
20214751,EX,20214751-356,783,ACT-709478,250,mg/kg,SOLUTION,QD,ORAL GAVAGE,2939-AA/1,Methylcellulose 0.5% / polyoxyethylene sorbitan monooleate (Tween 80) 0.5% / water (w/v/v),10,mL/kg,2018-10-26,18
20214751,EX,20214751-356,784,ACT-709478,250,mg/kg,SOLUTION,QD,ORAL GAVAGE,2939-AA/1,Methylcellulose 0.5% / polyoxyethylene sorbitan monooleate (Tween 80) 0.5% / water (w/v/v),10,mL/kg,2018-10-27,19
20214751,EX,20214751-356,785,ACT-709478,250,mg/kg,SOLUTION,QD,ORAL GAVAGE,2939-AA/1,Methylcellulose 0.5% / polyoxyethylene sorbitan monooleate (Tween 80) 0.5% / water (w/v/v),10,mL/kg,2018-10-28,20
20214751,EX,20214751-356,786,ACT-709478,250,mg/kg,SOLUTION,QD,ORAL GAVAGE,2939-AA/1,Methylcellulose 0.5% / polyoxyethylene sorbitan monooleate (Tween 80) 0.5% / water (w/v/v),10,mL/kg,2018-10-29,21
20214751,EX,20214751-356,787,ACT-709478,250,mg/kg,SOLUTION,QD,ORAL GAVAGE,2939-AA/1,Methylcellulose 0.5% / polyoxyethylene sorbitan monooleate (Tween 80) 0.5% / water (w/v/v),10,mL/kg,2018-10-30,22
20214751,EX,20214751-356,788,ACT-709478,250,mg/kg,SOLUTION,QD,ORAL GAVAGE,2939-AA/1,Methylcellulose 0.5% / polyoxyethylene sorbitan monooleate (Tween 80) 0.5% / water (w/v/v),10,mL/kg,2018-10-31,23
20214751,EX,20214751-356,789,ACT-709478,250,mg/kg,SOLUTION,QD,ORAL GAVAGE,2939-AA/1,Methylcellulose 0.5% / polyoxyethylene sorbitan monooleate (Tween 80) 0.5% / water (w/v/v),10,mL/kg,2018-11-01,24
20214751,EX,20214751-356,790,ACT-709478,250,mg/kg,SOLUTION,QD,ORAL GAVAGE,2939-AA/1,Methylcellulose 0.5% / polyoxyethylene sorbitan monooleate (Tween 80) 0.5% / water (w/v/v),10,mL/kg,2018-11-02,25
20214751,EX,20214751-356,791,ACT-709478,250,mg/kg,SOLUTION,QD,ORAL GAVAGE,2939-AA/1,Methylcellulose 0.5% / polyoxyethylene sorbitan monooleate (Tween 80) 0.5% / water (w/v/v),10,mL/kg,2018-11-03,26
20214751,EX,20214751-356,792,ACT-709478,250,mg/kg,SOLUTION,QD,ORAL GAVAGE,2939-AA/1,Methylcellulose 0.5% / polyoxyethylene sorbitan monooleate (Tween 80) 0.5% / water (w/v/v),10,mL/kg,2018-11-04,27
20214751,EX,20214751-356,793,ACT-709478,250,mg/kg,SOLUTION,QD,ORAL GAVAGE,2939-AA/1,Methylcellulose 0.5% / polyoxyethylene sorbitan monooleate (Tween 80) 0.5% / water (w/v/v),10,mL/kg,2018-11-05,28
20214751,EX,20214751-356,794,ACT-709478,250,mg/kg,SOLUTION,QD,ORAL GAVAGE,2939-AA/1,Methylcellulose 0.5% / polyoxyethylene sorbitan monooleate (Tween 80) 0.5% / water (w/v/v),10,mL/kg,2018-11-06,29
20214751,EX,20214751-356,795,ACT-709478,250,mg/kg,SOLUTION,QD,ORAL GAVAGE,2939-AA/1,Methylcellulose 0.5% / polyoxyethylene sorbitan monooleate (Tween 80) 0.5% / water (w/v/v),10,mL/kg,2018-11-07,30
20214751,EX,20214751-356,796,ACT-709478,250,mg/kg,SOLUTION,QD,ORAL GAVAGE,2939-AA/1,Methylcellulose 0.5% / polyoxyethylene sorbitan monooleate (Tween 80) 0.5% / water (w/v/v),10,mL/kg,2018-11-08,31
20214751,EX,20214751-356,797,ACT-709478,250,mg/kg,SOLUTION,QD,ORAL GAVAGE,2939-AA/1,Methylcellulose 0.5% / polyoxyethylene sorbitan monooleate (Tween 80) 0.5% / water (w/v/v),10,mL/kg,2018-11-09,32
20214751,EX,20214751-356,798,ACT-709478,250,mg/kg,SOLUTION,QD,ORAL GAVAGE,2939-AA/1,Methylcellulose 0.5% / polyoxyethylene sorbitan monooleate (Tween 80) 0.5% / water (w/v/v),10,mL/kg,2018-11-10,33
20214751,EX,20214751-356,799,ACT-709478,250,mg/kg,SOLUTION,QD,ORAL GAVAGE,2939-AA/1,Methylcellulose 0.5% / polyoxyethylene sorbitan monooleate (Tween 80) 0.5% / water (w/v/v),10,mL/kg,2018-11-11,34
20214751,EX,20214751-356,800,ACT-709478,250,mg/kg,SOLUTION,QD,ORAL GAVAGE,2939-AA/1,Methylcellulose 0.5% / polyoxyethylene sorbitan monooleate (Tween 80) 0.5% / water (w/v/v),10,mL/kg,2018-11-12,35
20214751,EX,20214751-356,801,ACT-709478,250,mg/kg,SOLUTION,QD,ORAL GAVAGE,2939-AA/1,Methylcellulose 0.5% / polyoxyethylene sorbitan monooleate (Tween 80) 0.5% / water (w/v/v),10,mL/kg,2018-11-13,36
20214751,EX,20214751-356,802,ACT-709478,250,mg/kg,SOLUTION,QD,ORAL GAVAGE,2939-AA/1,Methylcellulose 0.5% / polyoxyethylene sorbitan monooleate (Tween 80) 0.5% / water (w/v/v),10,mL/kg,2018-11-14,37
20214751,EX,20214751-356,803,ACT-709478,250,mg/kg,SOLUTION,QD,ORAL GAVAGE,2939-AA/1,Methylcellulose 0.5% / polyoxyethylene sorbitan monooleate (Tween 80) 0.5% / water (w/v/v),10,mL/kg,2018-11-15,38
20214751,EX,20214751-356,804,ACT-709478,250,mg/kg,SOLUTION,QD,ORAL GAVAGE,2939-AA/1,Methylcellulose 0.5% / polyoxyethylene sorbitan monooleate (Tween 80) 0.5% / water (w/v/v),10,mL/kg,2018-11-16,39
20214751,EX,20214751-356,805,ACT-709478,250,mg/kg,SOLUTION,QD,ORAL GAVAGE,2939-AA/1,Methylcellulose 0.5% / polyoxyethylene sorbitan monooleate (Tween 80) 0.5% / water (w/v/v),10,mL/kg,2018-11-17,40
20214751,EX,20214751-356,806,ACT-709478,250,mg/kg,SOLUTION,QD,ORAL GAVAGE,2939-AA/1,Methylcellulose 0.5% / polyoxyethylene sorbitan monooleate (Tween 80) 0.5% / water (w/v/v),10,mL/kg,2018-11-18,41
20214751,EX,20214751-356,807,ACT-709478,250,mg/kg,SOLUTION,QD,ORAL GAVAGE,2939-AA/1,Methylcellulose 0.5% / polyoxyethylene sorbitan monooleate (Tween 80) 0.5% / water (w/v/v),10,mL/kg,2018-11-19,42
20214751,EX,20214751-356,808,ACT-709478,250,mg/kg,SOLUTION,QD,ORAL GAVAGE,2939-AA/1,Methylcellulose 0.5% / polyoxyethylene sorbitan monooleate (Tween 80) 0.5% / water (w/v/v),10,mL/kg,2018-11-20,43
20214751,EX,20214751-356,809,ACT-709478,250,mg/kg,SOLUTION,QD,ORAL GAVAGE,2939-AA/1,Methylcellulose 0.5% / polyoxyethylene sorbitan monooleate (Tween 80) 0.5% / water (w/v/v),10,mL/kg,2018-11-21,44
20214751,EX,20214751-356,810,ACT-709478,250,mg/kg,SOLUTION,QD,ORAL GAVAGE,2939-AA/1,Methylcellulose 0.5% / polyoxyethylene sorbitan monooleate (Tween 80) 0.5% / water (w/v/v),10,mL/kg,2018-11-22,45
20214751,EX,20214751-451,811,ACT-709478,250,mg/kg,SOLUTION,QD,ORAL GAVAGE,2939-AA/1,Methylcellulose 0.5% / polyoxyethylene sorbitan monooleate (Tween 80) 0.5% / water (w/v/v),10,mL/kg,2018-10-09,1
20214751,EX,20214751-451,812,ACT-709478,250,mg/kg,SOLUTION,QD,ORAL GAVAGE,2939-AA/1,Methylcellulose 0.5% / polyoxyethylene sorbitan monooleate (Tween 80) 0.5% / water (w/v/v),10,mL/kg,2018-10-10,2
20214751,EX,20214751-451,813,ACT-709478,250,mg/kg,SOLUTION,QD,ORAL GAVAGE,2939-AA/1,Methylcellulose 0.5% / polyoxyethylene sorbitan monooleate (Tween 80) 0.5% / water (w/v/v),10,mL/kg,2018-10-11,3
20214751,EX,20214751-451,814,ACT-709478,250,mg/kg,SOLUTION,QD,ORAL GAVAGE,2939-AA/1,Methylcellulose 0.5% / polyoxyethylene sorbitan monooleate (Tween 80) 0.5% / water (w/v/v),10,mL/kg,2018-10-12,4
20214751,EX,20214751-451,815,ACT-709478,250,mg/kg,SOLUTION,QD,ORAL GAVAGE,2939-AA/1,Methylcellulose 0.5% / polyoxyethylene sorbitan monooleate (Tween 80) 0.5% / water (w/v/v),10,mL/kg,2018-10-13,5
20214751,EX,20214751-451,816,ACT-709478,250,mg/kg,SOLUTION,QD,ORAL GAVAGE,2939-AA/1,Methylcellulose 0.5% / polyoxyethylene sorbitan monooleate (Tween 80) 0.5% / water (w/v/v),10,mL/kg,2018-10-14,6
20214751,EX,20214751-451,817,ACT-709478,250,mg/kg,SOLUTION,QD,ORAL GAVAGE,2939-AA/1,Methylcellulose 0.5% / polyoxyethylene sorbitan monooleate (Tween 80) 0.5% / water (w/v/v),10,mL/kg,2018-10-15,7
20214751,EX,20214751-451,818,ACT-709478,250,mg/kg,SOLUTION,QD,ORAL GAVAGE,2939-AA/1,Methylcellulose 0.5% / polyoxyethylene sorbitan monooleate (Tween 80) 0.5% / water (w/v/v),10,mL/kg,2018-10-16,8
20214751,EX,20214751-451,819,ACT-709478,250,mg/kg,SOLUTION,QD,ORAL GAVAGE,2939-AA/1,Methylcellulose 0.5% / polyoxyethylene sorbitan monooleate (Tween 80) 0.5% / water (w/v/v),10,mL/kg,2018-10-17,9
20214751,EX,20214751-451,820,ACT-709478,250,mg/kg,SOLUTION,QD,ORAL GAVAGE,2939-AA/1,Methylcellulose 0.5% / polyoxyethylene sorbitan monooleate (Tween 80) 0.5% / water (w/v/v),10,mL/kg,2018-10-18,10
20214751,EX,20214751-451,821,ACT-709478,250,mg/kg,SOLUTION,QD,ORAL GAVAGE,2939-AA/1,Methylcellulose 0.5% / polyoxyethylene sorbitan monooleate (Tween 80) 0.5% / water (w/v/v),10,mL/kg,2018-10-19,11
20214751,EX,20214751-451,822,ACT-709478,250,mg/kg,SOLUTION,QD,ORAL GAVAGE,2939-AA/1,Methylcellulose 0.5% / polyoxyethylene sorbitan monooleate (Tween 80) 0.5% / water (w/v/v),10,mL/kg,2018-10-20,12
20214751,EX,20214751-451,823,ACT-709478,250,mg/kg,SOLUTION,QD,ORAL GAVAGE,2939-AA/1,Methylcellulose 0.5% / polyoxyethylene sorbitan monooleate (Tween 80) 0.5% / water (w/v/v),10,mL/kg,2018-10-21,13
20214751,EX,20214751-451,824,ACT-709478,250,mg/kg,SOLUTION,QD,ORAL GAVAGE,2939-AA/1,Methylcellulose 0.5% / polyoxyethylene sorbitan monooleate (Tween 80) 0.5% / water (w/v/v),10,mL/kg,2018-10-22,14
20214751,EX,20214751-451,825,ACT-709478,250,mg/kg,SOLUTION,QD,ORAL GAVAGE,2939-AA/1,Methylcellulose 0.5% / polyoxyethylene sorbitan monooleate (Tween 80) 0.5% / water (w/v/v),10,mL/kg,2018-10-23,15
20214751,EX,20214751-451,826,ACT-709478,250,mg/kg,SOLUTION,QD,ORAL GAVAGE,2939-AA/1,Methylcellulose 0.5% / polyoxyethylene sorbitan monooleate (Tween 80) 0.5% / water (w/v/v),10,mL/kg,2018-10-24,16
20214751,EX,20214751-451,827,ACT-709478,250,mg/kg,SOLUTION,QD,ORAL GAVAGE,2939-AA/1,Methylcellulose 0.5% / polyoxyethylene sorbitan monooleate (Tween 80) 0.5% / water (w/v/v),10,mL/kg,2018-10-25,17
20214751,EX,20214751-451,828,ACT-709478,250,mg/kg,SOLUTION,QD,ORAL GAVAGE,2939-AA/1,Methylcellulose 0.5% / polyoxyethylene sorbitan monooleate (Tween 80) 0.5% / water (w/v/v),10,mL/kg,2018-10-26,18
20214751,EX,20214751-451,829,ACT-709478,250,mg/kg,SOLUTION,QD,ORAL GAVAGE,2939-AA/1,Methylcellulose 0.5% / polyoxyethylene sorbitan monooleate (Tween 80) 0.5% / water (w/v/v),10,mL/kg,2018-10-27,19
20214751,EX,20214751-451,830,ACT-709478,250,mg/kg,SOLUTION,QD,ORAL GAVAGE,2939-AA/1,Methylcellulose 0.5% / polyoxyethylene sorbitan monooleate (Tween 80) 0.5% / water (w/v/v),10,mL/kg,2018-10-28,20
20214751,EX,20214751-451,831,ACT-709478,250,mg/kg,SOLUTION,QD,ORAL GAVAGE,2939-AA/1,Methylcellulose 0.5% / polyoxyethylene sorbitan monooleate (Tween 80) 0.5% / water (w/v/v),10,mL/kg,2018-10-29,21
20214751,EX,20214751-451,832,ACT-709478,250,mg/kg,SOLUTION,QD,ORAL GAVAGE,2939-AA/1,Methylcellulose 0.5% / polyoxyethylene sorbitan monooleate (Tween 80) 0.5% / water (w/v/v),10,mL/kg,2018-10-30,22
20214751,EX,20214751-451,833,ACT-709478,250,mg/kg,SOLUTION,QD,ORAL GAVAGE,2939-AA/1,Methylcellulose 0.5% / polyoxyethylene sorbitan monooleate (Tween 80) 0.5% / water (w/v/v),10,mL/kg,2018-10-31,23
20214751,EX,20214751-451,834,ACT-709478,250,mg/kg,SOLUTION,QD,ORAL GAVAGE,2939-AA/1,Methylcellulose 0.5% / polyoxyethylene sorbitan monooleate (Tween 80) 0.5% / water (w/v/v),10,mL/kg,2018-11-01,24
20214751,EX,20214751-451,835,ACT-709478,250,mg/kg,SOLUTION,QD,ORAL GAVAGE,2939-AA/1,Methylcellulose 0.5% / polyoxyethylene sorbitan monooleate (Tween 80) 0.5% / water (w/v/v),10,mL/kg,2018-11-02,25
20214751,EX,20214751-451,836,ACT-709478,250,mg/kg,SOLUTION,QD,ORAL GAVAGE,2939-AA/1,Methylcellulose 0.5% / polyoxyethylene sorbitan monooleate (Tween 80) 0.5% / water (w/v/v),10,mL/kg,2018-11-03,26
20214751,EX,20214751-451,837,ACT-709478,250,mg/kg,SOLUTION,QD,ORAL GAVAGE,2939-AA/1,Methylcellulose 0.5% / polyoxyethylene sorbitan monooleate (Tween 80) 0.5% / water (w/v/v),10,mL/kg,2018-11-04,27
20214751,EX,20214751-451,838,ACT-709478,250,mg/kg,SOLUTION,QD,ORAL GAVAGE,2939-AA/1,Methylcellulose 0.5% / polyoxyethylene sorbitan monooleate (Tween 80) 0.5% / water (w/v/v),10,mL/kg,2018-11-05,28
20214751,EX,20214751-451,839,ACT-709478,250,mg/kg,SOLUTION,QD,ORAL GAVAGE,2939-AA/1,Methylcellulose 0.5% / polyoxyethylene sorbitan monooleate (Tween 80) 0.5% / water (w/v/v),10,mL/kg,2018-11-06,29
20214751,EX,20214751-451,840,ACT-709478,250,mg/kg,SOLUTION,QD,ORAL GAVAGE,2939-AA/1,Methylcellulose 0.5% / polyoxyethylene sorbitan monooleate (Tween 80) 0.5% / water (w/v/v),10,mL/kg,2018-11-07,30
20214751,EX,20214751-451,841,ACT-709478,250,mg/kg,SOLUTION,QD,ORAL GAVAGE,2939-AA/1,Methylcellulose 0.5% / polyoxyethylene sorbitan monooleate (Tween 80) 0.5% / water (w/v/v),10,mL/kg,2018-11-08,31
20214751,EX,20214751-452,842,ACT-709478,250,mg/kg,SOLUTION,QD,ORAL GAVAGE,2939-AA/1,Methylcellulose 0.5% / polyoxyethylene sorbitan monooleate (Tween 80) 0.5% / water (w/v/v),10,mL/kg,2018-10-09,1
20214751,EX,20214751-452,843,ACT-709478,250,mg/kg,SOLUTION,QD,ORAL GAVAGE,2939-AA/1,Methylcellulose 0.5% / polyoxyethylene sorbitan monooleate (Tween 80) 0.5% / water (w/v/v),10,mL/kg,2018-10-10,2
20214751,EX,20214751-452,844,ACT-709478,250,mg/kg,SOLUTION,QD,ORAL GAVAGE,2939-AA/1,Methylcellulose 0.5% / polyoxyethylene sorbitan monooleate (Tween 80) 0.5% / water (w/v/v),10,mL/kg,2018-10-11,3
20214751,EX,20214751-452,845,ACT-709478,250,mg/kg,SOLUTION,QD,ORAL GAVAGE,2939-AA/1,Methylcellulose 0.5% / polyoxyethylene sorbitan monooleate (Tween 80) 0.5% / water (w/v/v),10,mL/kg,2018-10-12,4
20214751,EX,20214751-452,846,ACT-709478,250,mg/kg,SOLUTION,QD,ORAL GAVAGE,2939-AA/1,Methylcellulose 0.5% / polyoxyethylene sorbitan monooleate (Tween 80) 0.5% / water (w/v/v),10,mL/kg,2018-10-13,5
20214751,EX,20214751-452,847,ACT-709478,250,mg/kg,SOLUTION,QD,ORAL GAVAGE,2939-AA/1,Methylcellulose 0.5% / polyoxyethylene sorbitan monooleate (Tween 80) 0.5% / water (w/v/v),10,mL/kg,2018-10-14,6
20214751,EX,20214751-452,848,ACT-709478,250,mg/kg,SOLUTION,QD,ORAL GAVAGE,2939-AA/1,Methylcellulose 0.5% / polyoxyethylene sorbitan monooleate (Tween 80) 0.5% / water (w/v/v),10,mL/kg,2018-10-15,7
20214751,EX,20214751-452,849,ACT-709478,250,mg/kg,SOLUTION,QD,ORAL GAVAGE,2939-AA/1,Methylcellulose 0.5% / polyoxyethylene sorbitan monooleate (Tween 80) 0.5% / water (w/v/v),10,mL/kg,2018-10-16,8
20214751,EX,20214751-452,850,ACT-709478,250,mg/kg,SOLUTION,QD,ORAL GAVAGE,2939-AA/1,Methylcellulose 0.5% / polyoxyethylene sorbitan monooleate (Tween 80) 0.5% / water (w/v/v),10,mL/kg,2018-10-17,9
20214751,EX,20214751-452,851,ACT-709478,250,mg/kg,SOLUTION,QD,ORAL GAVAGE,2939-AA/1,Methylcellulose 0.5% / polyoxyethylene sorbitan monooleate (Tween 80) 0.5% / water (w/v/v),10,mL/kg,2018-10-18,10
20214751,EX,20214751-452,852,ACT-709478,250,mg/kg,SOLUTION,QD,ORAL GAVAGE,2939-AA/1,Methylcellulose 0.5% / polyoxyethylene sorbitan monooleate (Tween 80) 0.5% / water (w/v/v),10,mL/kg,2018-10-19,11
20214751,EX,20214751-452,853,ACT-709478,250,mg/kg,SOLUTION,QD,ORAL GAVAGE,2939-AA/1,Methylcellulose 0.5% / polyoxyethylene sorbitan monooleate (Tween 80) 0.5% / water (w/v/v),10,mL/kg,2018-10-20,12
20214751,EX,20214751-452,854,ACT-709478,250,mg/kg,SOLUTION,QD,ORAL GAVAGE,2939-AA/1,Methylcellulose 0.5% / polyoxyethylene sorbitan monooleate (Tween 80) 0.5% / water (w/v/v),10,mL/kg,2018-10-21,13
20214751,EX,20214751-452,855,ACT-709478,250,mg/kg,SOLUTION,QD,ORAL GAVAGE,2939-AA/1,Methylcellulose 0.5% / polyoxyethylene sorbitan monooleate (Tween 80) 0.5% / water (w/v/v),10,mL/kg,2018-10-22,14
20214751,EX,20214751-452,856,ACT-709478,250,mg/kg,SOLUTION,QD,ORAL GAVAGE,2939-AA/1,Methylcellulose 0.5% / polyoxyethylene sorbitan monooleate (Tween 80) 0.5% / water (w/v/v),10,mL/kg,2018-10-23,15
20214751,EX,20214751-452,857,ACT-709478,250,mg/kg,SOLUTION,QD,ORAL GAVAGE,2939-AA/1,Methylcellulose 0.5% / polyoxyethylene sorbitan monooleate (Tween 80) 0.5% / water (w/v/v),10,mL/kg,2018-10-24,16
20214751,EX,20214751-452,858,ACT-709478,250,mg/kg,SOLUTION,QD,ORAL GAVAGE,2939-AA/1,Methylcellulose 0.5% / polyoxyethylene sorbitan monooleate (Tween 80) 0.5% / water (w/v/v),10,mL/kg,2018-10-25,17
20214751,EX,20214751-452,859,ACT-709478,250,mg/kg,SOLUTION,QD,ORAL GAVAGE,2939-AA/1,Methylcellulose 0.5% / polyoxyethylene sorbitan monooleate (Tween 80) 0.5% / water (w/v/v),10,mL/kg,2018-10-26,18
20214751,EX,20214751-452,860,ACT-709478,250,mg/kg,SOLUTION,QD,ORAL GAVAGE,2939-AA/1,Methylcellulose 0.5% / polyoxyethylene sorbitan monooleate (Tween 80) 0.5% / water (w/v/v),10,mL/kg,2018-10-27,19
20214751,EX,20214751-452,861,ACT-709478,250,mg/kg,SOLUTION,QD,ORAL GAVAGE,2939-AA/1,Methylcellulose 0.5% / polyoxyethylene sorbitan monooleate (Tween 80) 0.5% / water (w/v/v),10,mL/kg,2018-10-28,20
20214751,EX,20214751-452,862,ACT-709478,250,mg/kg,SOLUTION,QD,ORAL GAVAGE,2939-AA/1,Methylcellulose 0.5% / polyoxyethylene sorbitan monooleate (Tween 80) 0.5% / water (w/v/v),10,mL/kg,2018-10-29,21
20214751,EX,20214751-452,863,ACT-709478,250,mg/kg,SOLUTION,QD,ORAL GAVAGE,2939-AA/1,Methylcellulose 0.5% / polyoxyethylene sorbitan monooleate (Tween 80) 0.5% / water (w/v/v),10,mL/kg,2018-10-30,22
20214751,EX,20214751-452,864,ACT-709478,250,mg/kg,SOLUTION,QD,ORAL GAVAGE,2939-AA/1,Methylcellulose 0.5% / polyoxyethylene sorbitan monooleate (Tween 80) 0.5% / water (w/v/v),10,mL/kg,2018-10-31,23
20214751,EX,20214751-452,865,ACT-709478,250,mg/kg,SOLUTION,QD,ORAL GAVAGE,2939-AA/1,Methylcellulose 0.5% / polyoxyethylene sorbitan monooleate (Tween 80) 0.5% / water (w/v/v),10,mL/kg,2018-11-01,24
20214751,EX,20214751-452,866,ACT-709478,250,mg/kg,SOLUTION,QD,ORAL GAVAGE,2939-AA/1,Methylcellulose 0.5% / polyoxyethylene sorbitan monooleate (Tween 80) 0.5% / water (w/v/v),10,mL/kg,2018-11-02,25
20214751,EX,20214751-452,867,ACT-709478,250,mg/kg,SOLUTION,QD,ORAL GAVAGE,2939-AA/1,Methylcellulose 0.5% / polyoxyethylene sorbitan monooleate (Tween 80) 0.5% / water (w/v/v),10,mL/kg,2018-11-03,26
20214751,EX,20214751-452,868,ACT-709478,250,mg/kg,SOLUTION,QD,ORAL GAVAGE,2939-AA/1,Methylcellulose 0.5% / polyoxyethylene sorbitan monooleate (Tween 80) 0.5% / water (w/v/v),10,mL/kg,2018-11-04,27
20214751,EX,20214751-452,869,ACT-709478,250,mg/kg,SOLUTION,QD,ORAL GAVAGE,2939-AA/1,Methylcellulose 0.5% / polyoxyethylene sorbitan monooleate (Tween 80) 0.5% / water (w/v/v),10,mL/kg,2018-11-05,28
20214751,EX,20214751-452,870,ACT-709478,250,mg/kg,SOLUTION,QD,ORAL GAVAGE,2939-AA/1,Methylcellulose 0.5% / polyoxyethylene sorbitan monooleate (Tween 80) 0.5% / water (w/v/v),10,mL/kg,2018-11-06,29
20214751,EX,20214751-452,871,ACT-709478,250,mg/kg,SOLUTION,QD,ORAL GAVAGE,2939-AA/1,Methylcellulose 0.5% / polyoxyethylene sorbitan monooleate (Tween 80) 0.5% / water (w/v/v),10,mL/kg,2018-11-07,30
20214751,EX,20214751-452,872,ACT-709478,250,mg/kg,SOLUTION,QD,ORAL GAVAGE,2939-AA/1,Methylcellulose 0.5% / polyoxyethylene sorbitan monooleate (Tween 80) 0.5% / water (w/v/v),10,mL/kg,2018-11-08,31
20214751,EX,20214751-453,873,ACT-709478,250,mg/kg,SOLUTION,QD,ORAL GAVAGE,2939-AA/1,Methylcellulose 0.5% / polyoxyethylene sorbitan monooleate (Tween 80) 0.5% / water (w/v/v),10,mL/kg,2018-10-09,1
20214751,EX,20214751-453,874,ACT-709478,250,mg/kg,SOLUTION,QD,ORAL GAVAGE,2939-AA/1,Methylcellulose 0.5% / polyoxyethylene sorbitan monooleate (Tween 80) 0.5% / water (w/v/v),10,mL/kg,2018-10-10,2
20214751,EX,20214751-453,875,ACT-709478,250,mg/kg,SOLUTION,QD,ORAL GAVAGE,2939-AA/1,Methylcellulose 0.5% / polyoxyethylene sorbitan monooleate (Tween 80) 0.5% / water (w/v/v),10,mL/kg,2018-10-11,3
20214751,EX,20214751-453,876,ACT-709478,250,mg/kg,SOLUTION,QD,ORAL GAVAGE,2939-AA/1,Methylcellulose 0.5% / polyoxyethylene sorbitan monooleate (Tween 80) 0.5% / water (w/v/v),10,mL/kg,2018-10-12,4
20214751,EX,20214751-453,877,ACT-709478,250,mg/kg,SOLUTION,QD,ORAL GAVAGE,2939-AA/1,Methylcellulose 0.5% / polyoxyethylene sorbitan monooleate (Tween 80) 0.5% / water (w/v/v),10,mL/kg,2018-10-13,5
20214751,EX,20214751-453,878,ACT-709478,250,mg/kg,SOLUTION,QD,ORAL GAVAGE,2939-AA/1,Methylcellulose 0.5% / polyoxyethylene sorbitan monooleate (Tween 80) 0.5% / water (w/v/v),10,mL/kg,2018-10-14,6
20214751,EX,20214751-453,879,ACT-709478,250,mg/kg,SOLUTION,QD,ORAL GAVAGE,2939-AA/1,Methylcellulose 0.5% / polyoxyethylene sorbitan monooleate (Tween 80) 0.5% / water (w/v/v),10,mL/kg,2018-10-15,7
20214751,EX,20214751-453,880,ACT-709478,250,mg/kg,SOLUTION,QD,ORAL GAVAGE,2939-AA/1,Methylcellulose 0.5% / polyoxyethylene sorbitan monooleate (Tween 80) 0.5% / water (w/v/v),10,mL/kg,2018-10-16,8
20214751,EX,20214751-453,881,ACT-709478,250,mg/kg,SOLUTION,QD,ORAL GAVAGE,2939-AA/1,Methylcellulose 0.5% / polyoxyethylene sorbitan monooleate (Tween 80) 0.5% / water (w/v/v),10,mL/kg,2018-10-17,9
20214751,EX,20214751-453,882,ACT-709478,250,mg/kg,SOLUTION,QD,ORAL GAVAGE,2939-AA/1,Methylcellulose 0.5% / polyoxyethylene sorbitan monooleate (Tween 80) 0.5% / water (w/v/v),10,mL/kg,2018-10-18,10
20214751,EX,20214751-453,883,ACT-709478,250,mg/kg,SOLUTION,QD,ORAL GAVAGE,2939-AA/1,Methylcellulose 0.5% / polyoxyethylene sorbitan monooleate (Tween 80) 0.5% / water (w/v/v),10,mL/kg,2018-10-19,11
20214751,EX,20214751-453,884,ACT-709478,250,mg/kg,SOLUTION,QD,ORAL GAVAGE,2939-AA/1,Methylcellulose 0.5% / polyoxyethylene sorbitan monooleate (Tween 80) 0.5% / water (w/v/v),10,mL/kg,2018-10-20,12
20214751,EX,20214751-453,885,ACT-709478,250,mg/kg,SOLUTION,QD,ORAL GAVAGE,2939-AA/1,Methylcellulose 0.5% / polyoxyethylene sorbitan monooleate (Tween 80) 0.5% / water (w/v/v),10,mL/kg,2018-10-21,13
20214751,EX,20214751-453,886,ACT-709478,250,mg/kg,SOLUTION,QD,ORAL GAVAGE,2939-AA/1,Methylcellulose 0.5% / polyoxyethylene sorbitan monooleate (Tween 80) 0.5% / water (w/v/v),10,mL/kg,2018-10-22,14
20214751,EX,20214751-453,887,ACT-709478,250,mg/kg,SOLUTION,QD,ORAL GAVAGE,2939-AA/1,Methylcellulose 0.5% / polyoxyethylene sorbitan monooleate (Tween 80) 0.5% / water (w/v/v),10,mL/kg,2018-10-23,15
20214751,EX,20214751-453,888,ACT-709478,250,mg/kg,SOLUTION,QD,ORAL GAVAGE,2939-AA/1,Methylcellulose 0.5% / polyoxyethylene sorbitan monooleate (Tween 80) 0.5% / water (w/v/v),10,mL/kg,2018-10-24,16
20214751,EX,20214751-453,889,ACT-709478,250,mg/kg,SOLUTION,QD,ORAL GAVAGE,2939-AA/1,Methylcellulose 0.5% / polyoxyethylene sorbitan monooleate (Tween 80) 0.5% / water (w/v/v),10,mL/kg,2018-10-25,17
20214751,EX,20214751-453,890,ACT-709478,250,mg/kg,SOLUTION,QD,ORAL GAVAGE,2939-AA/1,Methylcellulose 0.5% / polyoxyethylene sorbitan monooleate (Tween 80) 0.5% / water (w/v/v),10,mL/kg,2018-10-26,18
20214751,EX,20214751-453,891,ACT-709478,250,mg/kg,SOLUTION,QD,ORAL GAVAGE,2939-AA/1,Methylcellulose 0.5% / polyoxyethylene sorbitan monooleate (Tween 80) 0.5% / water (w/v/v),10,mL/kg,2018-10-27,19
20214751,EX,20214751-453,892,ACT-709478,250,mg/kg,SOLUTION,QD,ORAL GAVAGE,2939-AA/1,Methylcellulose 0.5% / polyoxyethylene sorbitan monooleate (Tween 80) 0.5% / water (w/v/v),10,mL/kg,2018-10-28,20
20214751,EX,20214751-453,893,ACT-709478,250,mg/kg,SOLUTION,QD,ORAL GAVAGE,2939-AA/1,Methylcellulose 0.5% / polyoxyethylene sorbitan monooleate (Tween 80) 0.5% / water (w/v/v),10,mL/kg,2018-10-29,21
20214751,EX,20214751-453,894,ACT-709478,250,mg/kg,SOLUTION,QD,ORAL GAVAGE,2939-AA/1,Methylcellulose 0.5% / polyoxyethylene sorbitan monooleate (Tween 80) 0.5% / water (w/v/v),10,mL/kg,2018-10-30,22
20214751,EX,20214751-453,895,ACT-709478,250,mg/kg,SOLUTION,QD,ORAL GAVAGE,2939-AA/1,Methylcellulose 0.5% / polyoxyethylene sorbitan monooleate (Tween 80) 0.5% / water (w/v/v),10,mL/kg,2018-10-31,23
20214751,EX,20214751-453,896,ACT-709478,250,mg/kg,SOLUTION,QD,ORAL GAVAGE,2939-AA/1,Methylcellulose 0.5% / polyoxyethylene sorbitan monooleate (Tween 80) 0.5% / water (w/v/v),10,mL/kg,2018-11-01,24
20214751,EX,20214751-453,897,ACT-709478,250,mg/kg,SOLUTION,QD,ORAL GAVAGE,2939-AA/1,Methylcellulose 0.5% / polyoxyethylene sorbitan monooleate (Tween 80) 0.5% / water (w/v/v),10,mL/kg,2018-11-02,25
20214751,EX,20214751-453,898,ACT-709478,250,mg/kg,SOLUTION,QD,ORAL GAVAGE,2939-AA/1,Methylcellulose 0.5% / polyoxyethylene sorbitan monooleate (Tween 80) 0.5% / water (w/v/v),10,mL/kg,2018-11-03,26
20214751,EX,20214751-453,899,ACT-709478,250,mg/kg,SOLUTION,QD,ORAL GAVAGE,2939-AA/1,Methylcellulose 0.5% / polyoxyethylene sorbitan monooleate (Tween 80) 0.5% / water (w/v/v),10,mL/kg,2018-11-04,27
20214751,EX,20214751-453,900,ACT-709478,250,mg/kg,SOLUTION,QD,ORAL GAVAGE,2939-AA/1,Methylcellulose 0.5% / polyoxyethylene sorbitan monooleate (Tween 80) 0.5% / water (w/v/v),10,mL/kg,2018-11-05,28
20214751,EX,20214751-453,901,ACT-709478,250,mg/kg,SOLUTION,QD,ORAL GAVAGE,2939-AA/1,Methylcellulose 0.5% / polyoxyethylene sorbitan monooleate (Tween 80) 0.5% / water (w/v/v),10,mL/kg,2018-11-06,29
20214751,EX,20214751-453,902,ACT-709478,250,mg/kg,SOLUTION,QD,ORAL GAVAGE,2939-AA/1,Methylcellulose 0.5% / polyoxyethylene sorbitan monooleate (Tween 80) 0.5% / water (w/v/v),10,mL/kg,2018-11-07,30
20214751,EX,20214751-453,903,ACT-709478,250,mg/kg,SOLUTION,QD,ORAL GAVAGE,2939-AA/1,Methylcellulose 0.5% / polyoxyethylene sorbitan monooleate (Tween 80) 0.5% / water (w/v/v),10,mL/kg,2018-11-08,31
20214751,EX,20214751-454,904,ACT-709478,250,mg/kg,SOLUTION,QD,ORAL GAVAGE,2939-AA/1,Methylcellulose 0.5% / polyoxyethylene sorbitan monooleate (Tween 80) 0.5% / water (w/v/v),10,mL/kg,2018-10-09,1
20214751,EX,20214751-454,905,ACT-709478,250,mg/kg,SOLUTION,QD,ORAL GAVAGE,2939-AA/1,Methylcellulose 0.5% / polyoxyethylene sorbitan monooleate (Tween 80) 0.5% / water (w/v/v),10,mL/kg,2018-10-10,2
20214751,EX,20214751-454,906,ACT-709478,250,mg/kg,SOLUTION,QD,ORAL GAVAGE,2939-AA/1,Methylcellulose 0.5% / polyoxyethylene sorbitan monooleate (Tween 80) 0.5% / water (w/v/v),10,mL/kg,2018-10-11,3
20214751,EX,20214751-454,907,ACT-709478,250,mg/kg,SOLUTION,QD,ORAL GAVAGE,2939-AA/1,Methylcellulose 0.5% / polyoxyethylene sorbitan monooleate (Tween 80) 0.5% / water (w/v/v),10,mL/kg,2018-10-12,4
20214751,EX,20214751-454,908,ACT-709478,250,mg/kg,SOLUTION,QD,ORAL GAVAGE,2939-AA/1,Methylcellulose 0.5% / polyoxyethylene sorbitan monooleate (Tween 80) 0.5% / water (w/v/v),10,mL/kg,2018-10-13,5
20214751,EX,20214751-454,909,ACT-709478,250,mg/kg,SOLUTION,QD,ORAL GAVAGE,2939-AA/1,Methylcellulose 0.5% / polyoxyethylene sorbitan monooleate (Tween 80) 0.5% / water (w/v/v),10,mL/kg,2018-10-14,6
20214751,EX,20214751-454,910,ACT-709478,250,mg/kg,SOLUTION,QD,ORAL GAVAGE,2939-AA/1,Methylcellulose 0.5% / polyoxyethylene sorbitan monooleate (Tween 80) 0.5% / water (w/v/v),10,mL/kg,2018-10-15,7
20214751,EX,20214751-454,911,ACT-709478,250,mg/kg,SOLUTION,QD,ORAL GAVAGE,2939-AA/1,Methylcellulose 0.5% / polyoxyethylene sorbitan monooleate (Tween 80) 0.5% / water (w/v/v),10,mL/kg,2018-10-16,8
20214751,EX,20214751-454,912,ACT-709478,250,mg/kg,SOLUTION,QD,ORAL GAVAGE,2939-AA/1,Methylcellulose 0.5% / polyoxyethylene sorbitan monooleate (Tween 80) 0.5% / water (w/v/v),10,mL/kg,2018-10-17,9
20214751,EX,20214751-454,913,ACT-709478,250,mg/kg,SOLUTION,QD,ORAL GAVAGE,2939-AA/1,Methylcellulose 0.5% / polyoxyethylene sorbitan monooleate (Tween 80) 0.5% / water (w/v/v),10,mL/kg,2018-10-18,10
20214751,EX,20214751-454,914,ACT-709478,250,mg/kg,SOLUTION,QD,ORAL GAVAGE,2939-AA/1,Methylcellulose 0.5% / polyoxyethylene sorbitan monooleate (Tween 80) 0.5% / water (w/v/v),10,mL/kg,2018-10-19,11
20214751,EX,20214751-454,915,ACT-709478,250,mg/kg,SOLUTION,QD,ORAL GAVAGE,2939-AA/1,Methylcellulose 0.5% / polyoxyethylene sorbitan monooleate (Tween 80) 0.5% / water (w/v/v),10,mL/kg,2018-10-20,12
20214751,EX,20214751-454,916,ACT-709478,250,mg/kg,SOLUTION,QD,ORAL GAVAGE,2939-AA/1,Methylcellulose 0.5% / polyoxyethylene sorbitan monooleate (Tween 80) 0.5% / water (w/v/v),10,mL/kg,2018-10-21,13
20214751,EX,20214751-454,917,ACT-709478,250,mg/kg,SOLUTION,QD,ORAL GAVAGE,2939-AA/1,Methylcellulose 0.5% / polyoxyethylene sorbitan monooleate (Tween 80) 0.5% / water (w/v/v),10,mL/kg,2018-10-22,14
20214751,EX,20214751-454,918,ACT-709478,250,mg/kg,SOLUTION,QD,ORAL GAVAGE,2939-AA/1,Methylcellulose 0.5% / polyoxyethylene sorbitan monooleate (Tween 80) 0.5% / water (w/v/v),10,mL/kg,2018-10-23,15
20214751,EX,20214751-454,919,ACT-709478,250,mg/kg,SOLUTION,QD,ORAL GAVAGE,2939-AA/1,Methylcellulose 0.5% / polyoxyethylene sorbitan monooleate (Tween 80) 0.5% / water (w/v/v),10,mL/kg,2018-10-24,16
20214751,EX,20214751-454,920,ACT-709478,250,mg/kg,SOLUTION,QD,ORAL GAVAGE,2939-AA/1,Methylcellulose 0.5% / polyoxyethylene sorbitan monooleate (Tween 80) 0.5% / water (w/v/v),10,mL/kg,2018-10-25,17
20214751,EX,20214751-454,921,ACT-709478,250,mg/kg,SOLUTION,QD,ORAL GAVAGE,2939-AA/1,Methylcellulose 0.5% / polyoxyethylene sorbitan monooleate (Tween 80) 0.5% / water (w/v/v),10,mL/kg,2018-10-26,18
20214751,EX,20214751-454,922,ACT-709478,250,mg/kg,SOLUTION,QD,ORAL GAVAGE,2939-AA/1,Methylcellulose 0.5% / polyoxyethylene sorbitan monooleate (Tween 80) 0.5% / water (w/v/v),10,mL/kg,2018-10-27,19
20214751,EX,20214751-454,923,ACT-709478,250,mg/kg,SOLUTION,QD,ORAL GAVAGE,2939-AA/1,Methylcellulose 0.5% / polyoxyethylene sorbitan monooleate (Tween 80) 0.5% / water (w/v/v),10,mL/kg,2018-10-28,20
20214751,EX,20214751-454,924,ACT-709478,250,mg/kg,SOLUTION,QD,ORAL GAVAGE,2939-AA/1,Methylcellulose 0.5% / polyoxyethylene sorbitan monooleate (Tween 80) 0.5% / water (w/v/v),10,mL/kg,2018-10-29,21
20214751,EX,20214751-454,925,ACT-709478,250,mg/kg,SOLUTION,QD,ORAL GAVAGE,2939-AA/1,Methylcellulose 0.5% / polyoxyethylene sorbitan monooleate (Tween 80) 0.5% / water (w/v/v),10,mL/kg,2018-10-30,22
20214751,EX,20214751-454,926,ACT-709478,250,mg/kg,SOLUTION,QD,ORAL GAVAGE,2939-AA/1,Methylcellulose 0.5% / polyoxyethylene sorbitan monooleate (Tween 80) 0.5% / water (w/v/v),10,mL/kg,2018-10-31,23
20214751,EX,20214751-454,927,ACT-709478,250,mg/kg,SOLUTION,QD,ORAL GAVAGE,2939-AA/1,Methylcellulose 0.5% / polyoxyethylene sorbitan monooleate (Tween 80) 0.5% / water (w/v/v),10,mL/kg,2018-11-01,24
20214751,EX,20214751-454,928,ACT-709478,250,mg/kg,SOLUTION,QD,ORAL GAVAGE,2939-AA/1,Methylcellulose 0.5% / polyoxyethylene sorbitan monooleate (Tween 80) 0.5% / water (w/v/v),10,mL/kg,2018-11-02,25
20214751,EX,20214751-454,929,ACT-709478,250,mg/kg,SOLUTION,QD,ORAL GAVAGE,2939-AA/1,Methylcellulose 0.5% / polyoxyethylene sorbitan monooleate (Tween 80) 0.5% / water (w/v/v),10,mL/kg,2018-11-03,26
20214751,EX,20214751-454,930,ACT-709478,250,mg/kg,SOLUTION,QD,ORAL GAVAGE,2939-AA/1,Methylcellulose 0.5% / polyoxyethylene sorbitan monooleate (Tween 80) 0.5% / water (w/v/v),10,mL/kg,2018-11-04,27
20214751,EX,20214751-454,931,ACT-709478,250,mg/kg,SOLUTION,QD,ORAL GAVAGE,2939-AA/1,Methylcellulose 0.5% / polyoxyethylene sorbitan monooleate (Tween 80) 0.5% / water (w/v/v),10,mL/kg,2018-11-05,28
20214751,EX,20214751-454,932,ACT-709478,250,mg/kg,SOLUTION,QD,ORAL GAVAGE,2939-AA/1,Methylcellulose 0.5% / polyoxyethylene sorbitan monooleate (Tween 80) 0.5% / water (w/v/v),10,mL/kg,2018-11-06,29
20214751,EX,20214751-454,933,ACT-709478,250,mg/kg,SOLUTION,QD,ORAL GAVAGE,2939-AA/1,Methylcellulose 0.5% / polyoxyethylene sorbitan monooleate (Tween 80) 0.5% / water (w/v/v),10,mL/kg,2018-11-07,30
20214751,EX,20214751-454,934,ACT-709478,250,mg/kg,SOLUTION,QD,ORAL GAVAGE,2939-AA/1,Methylcellulose 0.5% / polyoxyethylene sorbitan monooleate (Tween 80) 0.5% / water (w/v/v),10,mL/kg,2018-11-08,31
20214751,EX,20214751-455,935,ACT-709478,250,mg/kg,SOLUTION,QD,ORAL GAVAGE,2939-AA/1,Methylcellulose 0.5% / polyoxyethylene sorbitan monooleate (Tween 80) 0.5% / water (w/v/v),10,mL/kg,2018-10-09,1
20214751,EX,20214751-455,936,ACT-709478,250,mg/kg,SOLUTION,QD,ORAL GAVAGE,2939-AA/1,Methylcellulose 0.5% / polyoxyethylene sorbitan monooleate (Tween 80) 0.5% / water (w/v/v),10,mL/kg,2018-10-10,2
20214751,EX,20214751-455,937,ACT-709478,250,mg/kg,SOLUTION,QD,ORAL GAVAGE,2939-AA/1,Methylcellulose 0.5% / polyoxyethylene sorbitan monooleate (Tween 80) 0.5% / water (w/v/v),10,mL/kg,2018-10-11,3
20214751,EX,20214751-455,938,ACT-709478,250,mg/kg,SOLUTION,QD,ORAL GAVAGE,2939-AA/1,Methylcellulose 0.5% / polyoxyethylene sorbitan monooleate (Tween 80) 0.5% / water (w/v/v),10,mL/kg,2018-10-12,4
20214751,EX,20214751-455,939,ACT-709478,250,mg/kg,SOLUTION,QD,ORAL GAVAGE,2939-AA/1,Methylcellulose 0.5% / polyoxyethylene sorbitan monooleate (Tween 80) 0.5% / water (w/v/v),10,mL/kg,2018-10-13,5
20214751,EX,20214751-455,940,ACT-709478,250,mg/kg,SOLUTION,QD,ORAL GAVAGE,2939-AA/1,Methylcellulose 0.5% / polyoxyethylene sorbitan monooleate (Tween 80) 0.5% / water (w/v/v),10,mL/kg,2018-10-14,6
20214751,EX,20214751-455,941,ACT-709478,250,mg/kg,SOLUTION,QD,ORAL GAVAGE,2939-AA/1,Methylcellulose 0.5% / polyoxyethylene sorbitan monooleate (Tween 80) 0.5% / water (w/v/v),10,mL/kg,2018-10-15,7
20214751,EX,20214751-455,942,ACT-709478,250,mg/kg,SOLUTION,QD,ORAL GAVAGE,2939-AA/1,Methylcellulose 0.5% / polyoxyethylene sorbitan monooleate (Tween 80) 0.5% / water (w/v/v),10,mL/kg,2018-10-16,8
20214751,EX,20214751-455,943,ACT-709478,250,mg/kg,SOLUTION,QD,ORAL GAVAGE,2939-AA/1,Methylcellulose 0.5% / polyoxyethylene sorbitan monooleate (Tween 80) 0.5% / water (w/v/v),10,mL/kg,2018-10-17,9
20214751,EX,20214751-455,944,ACT-709478,250,mg/kg,SOLUTION,QD,ORAL GAVAGE,2939-AA/1,Methylcellulose 0.5% / polyoxyethylene sorbitan monooleate (Tween 80) 0.5% / water (w/v/v),10,mL/kg,2018-10-18,10
20214751,EX,20214751-455,945,ACT-709478,250,mg/kg,SOLUTION,QD,ORAL GAVAGE,2939-AA/1,Methylcellulose 0.5% / polyoxyethylene sorbitan monooleate (Tween 80) 0.5% / water (w/v/v),10,mL/kg,2018-10-19,11
20214751,EX,20214751-455,946,ACT-709478,250,mg/kg,SOLUTION,QD,ORAL GAVAGE,2939-AA/1,Methylcellulose 0.5% / polyoxyethylene sorbitan monooleate (Tween 80) 0.5% / water (w/v/v),10,mL/kg,2018-10-20,12
20214751,EX,20214751-455,947,ACT-709478,250,mg/kg,SOLUTION,QD,ORAL GAVAGE,2939-AA/1,Methylcellulose 0.5% / polyoxyethylene sorbitan monooleate (Tween 80) 0.5% / water (w/v/v),10,mL/kg,2018-10-21,13
20214751,EX,20214751-455,948,ACT-709478,250,mg/kg,SOLUTION,QD,ORAL GAVAGE,2939-AA/1,Methylcellulose 0.5% / polyoxyethylene sorbitan monooleate (Tween 80) 0.5% / water (w/v/v),10,mL/kg,2018-10-22,14
20214751,EX,20214751-455,949,ACT-709478,250,mg/kg,SOLUTION,QD,ORAL GAVAGE,2939-AA/1,Methylcellulose 0.5% / polyoxyethylene sorbitan monooleate (Tween 80) 0.5% / water (w/v/v),10,mL/kg,2018-10-23,15
20214751,EX,20214751-455,950,ACT-709478,250,mg/kg,SOLUTION,QD,ORAL GAVAGE,2939-AA/1,Methylcellulose 0.5% / polyoxyethylene sorbitan monooleate (Tween 80) 0.5% / water (w/v/v),10,mL/kg,2018-10-24,16
20214751,EX,20214751-455,951,ACT-709478,250,mg/kg,SOLUTION,QD,ORAL GAVAGE,2939-AA/1,Methylcellulose 0.5% / polyoxyethylene sorbitan monooleate (Tween 80) 0.5% / water (w/v/v),10,mL/kg,2018-10-25,17
20214751,EX,20214751-455,952,ACT-709478,250,mg/kg,SOLUTION,QD,ORAL GAVAGE,2939-AA/1,Methylcellulose 0.5% / polyoxyethylene sorbitan monooleate (Tween 80) 0.5% / water (w/v/v),10,mL/kg,2018-10-26,18
20214751,EX,20214751-455,953,ACT-709478,250,mg/kg,SOLUTION,QD,ORAL GAVAGE,2939-AA/1,Methylcellulose 0.5% / polyoxyethylene sorbitan monooleate (Tween 80) 0.5% / water (w/v/v),10,mL/kg,2018-10-27,19
20214751,EX,20214751-455,954,ACT-709478,250,mg/kg,SOLUTION,QD,ORAL GAVAGE,2939-AA/1,Methylcellulose 0.5% / polyoxyethylene sorbitan monooleate (Tween 80) 0.5% / water (w/v/v),10,mL/kg,2018-10-28,20
20214751,EX,20214751-455,955,ACT-709478,250,mg/kg,SOLUTION,QD,ORAL GAVAGE,2939-AA/1,Methylcellulose 0.5% / polyoxyethylene sorbitan monooleate (Tween 80) 0.5% / water (w/v/v),10,mL/kg,2018-10-29,21
20214751,EX,20214751-455,956,ACT-709478,250,mg/kg,SOLUTION,QD,ORAL GAVAGE,2939-AA/1,Methylcellulose 0.5% / polyoxyethylene sorbitan monooleate (Tween 80) 0.5% / water (w/v/v),10,mL/kg,2018-10-30,22
20214751,EX,20214751-455,957,ACT-709478,250,mg/kg,SOLUTION,QD,ORAL GAVAGE,2939-AA/1,Methylcellulose 0.5% / polyoxyethylene sorbitan monooleate (Tween 80) 0.5% / water (w/v/v),10,mL/kg,2018-10-31,23
20214751,EX,20214751-455,958,ACT-709478,250,mg/kg,SOLUTION,QD,ORAL GAVAGE,2939-AA/1,Methylcellulose 0.5% / polyoxyethylene sorbitan monooleate (Tween 80) 0.5% / water (w/v/v),10,mL/kg,2018-11-01,24
20214751,EX,20214751-455,959,ACT-709478,250,mg/kg,SOLUTION,QD,ORAL GAVAGE,2939-AA/1,Methylcellulose 0.5% / polyoxyethylene sorbitan monooleate (Tween 80) 0.5% / water (w/v/v),10,mL/kg,2018-11-02,25
20214751,EX,20214751-455,960,ACT-709478,250,mg/kg,SOLUTION,QD,ORAL GAVAGE,2939-AA/1,Methylcellulose 0.5% / polyoxyethylene sorbitan monooleate (Tween 80) 0.5% / water (w/v/v),10,mL/kg,2018-11-03,26
20214751,EX,20214751-455,961,ACT-709478,250,mg/kg,SOLUTION,QD,ORAL GAVAGE,2939-AA/1,Methylcellulose 0.5% / polyoxyethylene sorbitan monooleate (Tween 80) 0.5% / water (w/v/v),10,mL/kg,2018-11-04,27
20214751,EX,20214751-455,962,ACT-709478,250,mg/kg,SOLUTION,QD,ORAL GAVAGE,2939-AA/1,Methylcellulose 0.5% / polyoxyethylene sorbitan monooleate (Tween 80) 0.5% / water (w/v/v),10,mL/kg,2018-11-05,28
20214751,EX,20214751-455,963,ACT-709478,250,mg/kg,SOLUTION,QD,ORAL GAVAGE,2939-AA/1,Methylcellulose 0.5% / polyoxyethylene sorbitan monooleate (Tween 80) 0.5% / water (w/v/v),10,mL/kg,2018-11-06,29
20214751,EX,20214751-455,964,ACT-709478,250,mg/kg,SOLUTION,QD,ORAL GAVAGE,2939-AA/1,Methylcellulose 0.5% / polyoxyethylene sorbitan monooleate (Tween 80) 0.5% / water (w/v/v),10,mL/kg,2018-11-07,30
20214751,EX,20214751-455,965,ACT-709478,250,mg/kg,SOLUTION,QD,ORAL GAVAGE,2939-AA/1,Methylcellulose 0.5% / polyoxyethylene sorbitan monooleate (Tween 80) 0.5% / water (w/v/v),10,mL/kg,2018-11-08,31
20214751,EX,20214751-456,966,ACT-709478,250,mg/kg,SOLUTION,QD,ORAL GAVAGE,2939-AA/1,Methylcellulose 0.5% / polyoxyethylene sorbitan monooleate (Tween 80) 0.5% / water (w/v/v),10,mL/kg,2018-10-09,1
20214751,EX,20214751-456,967,ACT-709478,250,mg/kg,SOLUTION,QD,ORAL GAVAGE,2939-AA/1,Methylcellulose 0.5% / polyoxyethylene sorbitan monooleate (Tween 80) 0.5% / water (w/v/v),10,mL/kg,2018-10-10,2
20214751,EX,20214751-456,968,ACT-709478,250,mg/kg,SOLUTION,QD,ORAL GAVAGE,2939-AA/1,Methylcellulose 0.5% / polyoxyethylene sorbitan monooleate (Tween 80) 0.5% / water (w/v/v),10,mL/kg,2018-10-11,3
20214751,EX,20214751-456,969,ACT-709478,250,mg/kg,SOLUTION,QD,ORAL GAVAGE,2939-AA/1,Methylcellulose 0.5% / polyoxyethylene sorbitan monooleate (Tween 80) 0.5% / water (w/v/v),10,mL/kg,2018-10-12,4
20214751,EX,20214751-456,970,ACT-709478,250,mg/kg,SOLUTION,QD,ORAL GAVAGE,2939-AA/1,Methylcellulose 0.5% / polyoxyethylene sorbitan monooleate (Tween 80) 0.5% / water (w/v/v),10,mL/kg,2018-10-13,5
20214751,EX,20214751-456,971,ACT-709478,250,mg/kg,SOLUTION,QD,ORAL GAVAGE,2939-AA/1,Methylcellulose 0.5% / polyoxyethylene sorbitan monooleate (Tween 80) 0.5% / water (w/v/v),10,mL/kg,2018-10-14,6
20214751,EX,20214751-456,972,ACT-709478,250,mg/kg,SOLUTION,QD,ORAL GAVAGE,2939-AA/1,Methylcellulose 0.5% / polyoxyethylene sorbitan monooleate (Tween 80) 0.5% / water (w/v/v),10,mL/kg,2018-10-15,7
20214751,EX,20214751-456,973,ACT-709478,250,mg/kg,SOLUTION,QD,ORAL GAVAGE,2939-AA/1,Methylcellulose 0.5% / polyoxyethylene sorbitan monooleate (Tween 80) 0.5% / water (w/v/v),10,mL/kg,2018-10-16,8
20214751,EX,20214751-456,974,ACT-709478,250,mg/kg,SOLUTION,QD,ORAL GAVAGE,2939-AA/1,Methylcellulose 0.5% / polyoxyethylene sorbitan monooleate (Tween 80) 0.5% / water (w/v/v),10,mL/kg,2018-10-17,9
20214751,EX,20214751-456,975,ACT-709478,250,mg/kg,SOLUTION,QD,ORAL GAVAGE,2939-AA/1,Methylcellulose 0.5% / polyoxyethylene sorbitan monooleate (Tween 80) 0.5% / water (w/v/v),10,mL/kg,2018-10-18,10
20214751,EX,20214751-456,976,ACT-709478,250,mg/kg,SOLUTION,QD,ORAL GAVAGE,2939-AA/1,Methylcellulose 0.5% / polyoxyethylene sorbitan monooleate (Tween 80) 0.5% / water (w/v/v),10,mL/kg,2018-10-19,11
20214751,EX,20214751-456,977,ACT-709478,250,mg/kg,SOLUTION,QD,ORAL GAVAGE,2939-AA/1,Methylcellulose 0.5% / polyoxyethylene sorbitan monooleate (Tween 80) 0.5% / water (w/v/v),10,mL/kg,2018-10-20,12
20214751,EX,20214751-456,978,ACT-709478,250,mg/kg,SOLUTION,QD,ORAL GAVAGE,2939-AA/1,Methylcellulose 0.5% / polyoxyethylene sorbitan monooleate (Tween 80) 0.5% / water (w/v/v),10,mL/kg,2018-10-21,13
20214751,EX,20214751-456,979,ACT-709478,250,mg/kg,SOLUTION,QD,ORAL GAVAGE,2939-AA/1,Methylcellulose 0.5% / polyoxyethylene sorbitan monooleate (Tween 80) 0.5% / water (w/v/v),10,mL/kg,2018-10-22,14
20214751,EX,20214751-456,980,ACT-709478,250,mg/kg,SOLUTION,QD,ORAL GAVAGE,2939-AA/1,Methylcellulose 0.5% / polyoxyethylene sorbitan monooleate (Tween 80) 0.5% / water (w/v/v),10,mL/kg,2018-10-23,15
20214751,EX,20214751-456,981,ACT-709478,250,mg/kg,SOLUTION,QD,ORAL GAVAGE,2939-AA/1,Methylcellulose 0.5% / polyoxyethylene sorbitan monooleate (Tween 80) 0.5% / water (w/v/v),10,mL/kg,2018-10-24,16
20214751,EX,20214751-456,982,ACT-709478,250,mg/kg,SOLUTION,QD,ORAL GAVAGE,2939-AA/1,Methylcellulose 0.5% / polyoxyethylene sorbitan monooleate (Tween 80) 0.5% / water (w/v/v),10,mL/kg,2018-10-25,17
20214751,EX,20214751-456,983,ACT-709478,250,mg/kg,SOLUTION,QD,ORAL GAVAGE,2939-AA/1,Methylcellulose 0.5% / polyoxyethylene sorbitan monooleate (Tween 80) 0.5% / water (w/v/v),10,mL/kg,2018-10-26,18
20214751,EX,20214751-456,984,ACT-709478,250,mg/kg,SOLUTION,QD,ORAL GAVAGE,2939-AA/1,Methylcellulose 0.5% / polyoxyethylene sorbitan monooleate (Tween 80) 0.5% / water (w/v/v),10,mL/kg,2018-10-27,19
20214751,EX,20214751-456,985,ACT-709478,250,mg/kg,SOLUTION,QD,ORAL GAVAGE,2939-AA/1,Methylcellulose 0.5% / polyoxyethylene sorbitan monooleate (Tween 80) 0.5% / water (w/v/v),10,mL/kg,2018-10-28,20
20214751,EX,20214751-456,986,ACT-709478,250,mg/kg,SOLUTION,QD,ORAL GAVAGE,2939-AA/1,Methylcellulose 0.5% / polyoxyethylene sorbitan monooleate (Tween 80) 0.5% / water (w/v/v),10,mL/kg,2018-10-29,21
20214751,EX,20214751-456,987,ACT-709478,250,mg/kg,SOLUTION,QD,ORAL GAVAGE,2939-AA/1,Methylcellulose 0.5% / polyoxyethylene sorbitan monooleate (Tween 80) 0.5% / water (w/v/v),10,mL/kg,2018-10-30,22
20214751,EX,20214751-456,988,ACT-709478,250,mg/kg,SOLUTION,QD,ORAL GAVAGE,2939-AA/1,Methylcellulose 0.5% / polyoxyethylene sorbitan monooleate (Tween 80) 0.5% / water (w/v/v),10,mL/kg,2018-10-31,23
20214751,EX,20214751-456,989,ACT-709478,250,mg/kg,SOLUTION,QD,ORAL GAVAGE,2939-AA/1,Methylcellulose 0.5% / polyoxyethylene sorbitan monooleate (Tween 80) 0.5% / water (w/v/v),10,mL/kg,2018-11-01,24
20214751,EX,20214751-456,990,ACT-709478,250,mg/kg,SOLUTION,QD,ORAL GAVAGE,2939-AA/1,Methylcellulose 0.5% / polyoxyethylene sorbitan monooleate (Tween 80) 0.5% / water (w/v/v),10,mL/kg,2018-11-02,25
20214751,EX,20214751-456,991,ACT-709478,250,mg/kg,SOLUTION,QD,ORAL GAVAGE,2939-AA/1,Methylcellulose 0.5% / polyoxyethylene sorbitan monooleate (Tween 80) 0.5% / water (w/v/v),10,mL/kg,2018-11-03,26
20214751,EX,20214751-456,992,ACT-709478,250,mg/kg,SOLUTION,QD,ORAL GAVAGE,2939-AA/1,Methylcellulose 0.5% / polyoxyethylene sorbitan monooleate (Tween 80) 0.5% / water (w/v/v),10,mL/kg,2018-11-04,27
20214751,EX,20214751-456,993,ACT-709478,250,mg/kg,SOLUTION,QD,ORAL GAVAGE,2939-AA/1,Methylcellulose 0.5% / polyoxyethylene sorbitan monooleate (Tween 80) 0.5% / water (w/v/v),10,mL/kg,2018-11-05,28
20214751,EX,20214751-456,994,ACT-709478,250,mg/kg,SOLUTION,QD,ORAL GAVAGE,2939-AA/1,Methylcellulose 0.5% / polyoxyethylene sorbitan monooleate (Tween 80) 0.5% / water (w/v/v),10,mL/kg,2018-11-06,29
20214751,EX,20214751-456,995,ACT-709478,250,mg/kg,SOLUTION,QD,ORAL GAVAGE,2939-AA/1,Methylcellulose 0.5% / polyoxyethylene sorbitan monooleate (Tween 80) 0.5% / water (w/v/v),10,mL/kg,2018-11-07,30
20214751,EX,20214751-456,996,ACT-709478,250,mg/kg,SOLUTION,QD,ORAL GAVAGE,2939-AA/1,Methylcellulose 0.5% / polyoxyethylene sorbitan monooleate (Tween 80) 0.5% / water (w/v/v),10,mL/kg,2018-11-08,31
20214751,EX,20214751-551,997,NaI,35,mg/kg,SOLUTION,QD,ORAL GAVAGE,,Methylcellulose 0.5% / polyoxyethylene sorbitan monooleate (Tween 80) 0.5% / water (w/v/v),10,mL/kg,2018-10-09,1
20214751,EX,20214751-551,998,NaI,35,mg/kg,SOLUTION,QD,ORAL GAVAGE,,Methylcellulose 0.5% / polyoxyethylene sorbitan monooleate (Tween 80) 0.5% / water (w/v/v),10,mL/kg,2018-10-10,2
20214751,EX,20214751-551,999,NaI,35,mg/kg,SOLUTION,QD,ORAL GAVAGE,,Methylcellulose 0.5% / polyoxyethylene sorbitan monooleate (Tween 80) 0.5% / water (w/v/v),10,mL/kg,2018-10-11,3
20214751,EX,20214751-551,1000,NaI,35,mg/kg,SOLUTION,QD,ORAL GAVAGE,,Methylcellulose 0.5% / polyoxyethylene sorbitan monooleate (Tween 80) 0.5% / water (w/v/v),10,mL/kg,2018-10-12,4
20214751,EX,20214751-551,1001,NaI,35,mg/kg,SOLUTION,QD,ORAL GAVAGE,,Methylcellulose 0.5% / polyoxyethylene sorbitan monooleate (Tween 80) 0.5% / water (w/v/v),10,mL/kg,2018-10-13,5
20214751,EX,20214751-551,1002,NaI,35,mg/kg,SOLUTION,QD,ORAL GAVAGE,,Methylcellulose 0.5% / polyoxyethylene sorbitan monooleate (Tween 80) 0.5% / water (w/v/v),10,mL/kg,2018-10-14,6
20214751,EX,20214751-551,1003,NaI,35,mg/kg,SOLUTION,QD,ORAL GAVAGE,,Methylcellulose 0.5% / polyoxyethylene sorbitan monooleate (Tween 80) 0.5% / water (w/v/v),10,mL/kg,2018-10-15,7
20214751,EX,20214751-551,1004,NaI,35,mg/kg,SOLUTION,QD,ORAL GAVAGE,,Methylcellulose 0.5% / polyoxyethylene sorbitan monooleate (Tween 80) 0.5% / water (w/v/v),10,mL/kg,2018-10-16,8
20214751,EX,20214751-551,1005,NaI,35,mg/kg,SOLUTION,QD,ORAL GAVAGE,,Methylcellulose 0.5% / polyoxyethylene sorbitan monooleate (Tween 80) 0.5% / water (w/v/v),10,mL/kg,2018-10-17,9
20214751,EX,20214751-551,1006,NaI,35,mg/kg,SOLUTION,QD,ORAL GAVAGE,,Methylcellulose 0.5% / polyoxyethylene sorbitan monooleate (Tween 80) 0.5% / water (w/v/v),10,mL/kg,2018-10-18,10
20214751,EX,20214751-551,1007,NaI,35,mg/kg,SOLUTION,QD,ORAL GAVAGE,,Methylcellulose 0.5% / polyoxyethylene sorbitan monooleate (Tween 80) 0.5% / water (w/v/v),10,mL/kg,2018-10-19,11
20214751,EX,20214751-551,1008,NaI,35,mg/kg,SOLUTION,QD,ORAL GAVAGE,,Methylcellulose 0.5% / polyoxyethylene sorbitan monooleate (Tween 80) 0.5% / water (w/v/v),10,mL/kg,2018-10-20,12
20214751,EX,20214751-551,1009,NaI,35,mg/kg,SOLUTION,QD,ORAL GAVAGE,,Methylcellulose 0.5% / polyoxyethylene sorbitan monooleate (Tween 80) 0.5% / water (w/v/v),10,mL/kg,2018-10-21,13
20214751,EX,20214751-551,1010,NaI,35,mg/kg,SOLUTION,QD,ORAL GAVAGE,,Methylcellulose 0.5% / polyoxyethylene sorbitan monooleate (Tween 80) 0.5% / water (w/v/v),10,mL/kg,2018-10-22,14
20214751,EX,20214751-551,1011,NaI,35,mg/kg,SOLUTION,QD,ORAL GAVAGE,,Methylcellulose 0.5% / polyoxyethylene sorbitan monooleate (Tween 80) 0.5% / water (w/v/v),10,mL/kg,2018-10-23,15
20214751,EX,20214751-551,1012,NaI,35,mg/kg,SOLUTION,QD,ORAL GAVAGE,,Methylcellulose 0.5% / polyoxyethylene sorbitan monooleate (Tween 80) 0.5% / water (w/v/v),10,mL/kg,2018-10-24,16
20214751,EX,20214751-551,1013,NaI,35,mg/kg,SOLUTION,QD,ORAL GAVAGE,,Methylcellulose 0.5% / polyoxyethylene sorbitan monooleate (Tween 80) 0.5% / water (w/v/v),10,mL/kg,2018-10-25,17
20214751,EX,20214751-551,1014,NaI,35,mg/kg,SOLUTION,QD,ORAL GAVAGE,,Methylcellulose 0.5% / polyoxyethylene sorbitan monooleate (Tween 80) 0.5% / water (w/v/v),10,mL/kg,2018-10-26,18
20214751,EX,20214751-551,1015,NaI,35,mg/kg,SOLUTION,QD,ORAL GAVAGE,,Methylcellulose 0.5% / polyoxyethylene sorbitan monooleate (Tween 80) 0.5% / water (w/v/v),10,mL/kg,2018-10-27,19
20214751,EX,20214751-551,1016,NaI,35,mg/kg,SOLUTION,QD,ORAL GAVAGE,,Methylcellulose 0.5% / polyoxyethylene sorbitan monooleate (Tween 80) 0.5% / water (w/v/v),10,mL/kg,2018-10-28,20
20214751,EX,20214751-551,1017,NaI,35,mg/kg,SOLUTION,QD,ORAL GAVAGE,,Methylcellulose 0.5% / polyoxyethylene sorbitan monooleate (Tween 80) 0.5% / water (w/v/v),10,mL/kg,2018-10-29,21
20214751,EX,20214751-551,1018,NaI,35,mg/kg,SOLUTION,QD,ORAL GAVAGE,,Methylcellulose 0.5% / polyoxyethylene sorbitan monooleate (Tween 80) 0.5% / water (w/v/v),10,mL/kg,2018-10-30,22
20214751,EX,20214751-551,1019,NaI,35,mg/kg,SOLUTION,QD,ORAL GAVAGE,,Methylcellulose 0.5% / polyoxyethylene sorbitan monooleate (Tween 80) 0.5% / water (w/v/v),10,mL/kg,2018-10-31,23
20214751,EX,20214751-551,1020,NaI,35,mg/kg,SOLUTION,QD,ORAL GAVAGE,,Methylcellulose 0.5% / polyoxyethylene sorbitan monooleate (Tween 80) 0.5% / water (w/v/v),10,mL/kg,2018-11-01,24
20214751,EX,20214751-551,1021,NaI,35,mg/kg,SOLUTION,QD,ORAL GAVAGE,,Methylcellulose 0.5% / polyoxyethylene sorbitan monooleate (Tween 80) 0.5% / water (w/v/v),10,mL/kg,2018-11-02,25
20214751,EX,20214751-551,1022,NaI,35,mg/kg,SOLUTION,QD,ORAL GAVAGE,,Methylcellulose 0.5% / polyoxyethylene sorbitan monooleate (Tween 80) 0.5% / water (w/v/v),10,mL/kg,2018-11-03,26
20214751,EX,20214751-551,1023,NaI,35,mg/kg,SOLUTION,QD,ORAL GAVAGE,,Methylcellulose 0.5% / polyoxyethylene sorbitan monooleate (Tween 80) 0.5% / water (w/v/v),10,mL/kg,2018-11-04,27
20214751,EX,20214751-551,1024,NaI,35,mg/kg,SOLUTION,QD,ORAL GAVAGE,,Methylcellulose 0.5% / polyoxyethylene sorbitan monooleate (Tween 80) 0.5% / water (w/v/v),10,mL/kg,2018-11-05,28
20214751,EX,20214751-551,1025,NaI,10,mg/kg,SOLUTION,QD,ORAL GAVAGE,,Methylcellulose 0.5% / polyoxyethylene sorbitan monooleate (Tween 80) 0.5% / water (w/v/v),10,mL/kg,2018-11-06,29
20214751,EX,20214751-551,1026,NaI,10,mg/kg,SOLUTION,QD,ORAL GAVAGE,,Methylcellulose 0.5% / polyoxyethylene sorbitan monooleate (Tween 80) 0.5% / water (w/v/v),10,mL/kg,2018-11-07,30
20214751,EX,20214751-551,1027,NaI,10,mg/kg,SOLUTION,QD,ORAL GAVAGE,,Methylcellulose 0.5% / polyoxyethylene sorbitan monooleate (Tween 80) 0.5% / water (w/v/v),10,mL/kg,2018-11-08,31
20214751,EX,20214751-551,1028,NaI,10,mg/kg,SOLUTION,QD,ORAL GAVAGE,,Methylcellulose 0.5% / polyoxyethylene sorbitan monooleate (Tween 80) 0.5% / water (w/v/v),10,mL/kg,2018-11-09,32
